reference,test_blockOrder,blockOrder,imageFile,num,index,n,winsize,numerosity,allposis,centralposis,extraposis,perceptpairs,protectzonetype,convexhull,occupancyarea,averageeccentricity,averagespacing,density,display_i,p_trials.thisRepN,p_trials.thisTrialN,p_trials.thisN,p_trials.thisIndex,blocks.thisRepN,blocks.thisTrialN,blocks.thisN,blocks.thisIndex,trials_2.thisRepN,trials_2.thisTrialN,trials_2.thisN,trials_2.thisIndex,trials.thisRepN,trials.thisTrialN,trials.thisN,trials.thisIndex,key_resp.keys,key_resp.rt,key_resp_14.keys,key_resp_14.rt,key_resp_15.keys,key_resp_15.rt,key_resp_16.keys,key_resp_16.rt,key_resp_17.keys,key_resp_17.rt,key_resp_18.keys,key_resp_18.rt,key_resp_19.keys,key_resp_19.rt,key_resp_26.keys,key_resp_26.rt,p_img.started,p_img.stopped,text_14.started,text_14.stopped,responseN,key_resp_4.keys,key_resp_4.rt,text_20.started,text_20.stopped,key_resp_20.keys,key_resp_20.rt,key_resp_20.started,key_resp_20.stopped,key_resp_22.keys,key_resp_22.rt,key_resp_5.keys,key_resp_5.rt,image_2.started,image_2.stopped,blank.started,blank.stopped,text_21.started,text_21.stopped,key_resp_7.keys,key_resp_7.rt,key_resp_7.started,key_resp_7.stopped,key_resp_8.keys,key_resp_8.rt,key_resp_23.keys,key_resp_23.rt,image.started,image.stopped,text_31.started,text_31.stopped,text_32.started,text_32.stopped,key_resp_2.keys,key_resp_2.rt,thanksm.started,thanksm.stopped,participant,age,sex,date,expName,psychopyVersion,frameRate,
,,,,,,,,,,,,,,,,,,,,,,,,,,,,,,,,,,,,space,23.090769900009036,,,,,,,,,,,,,,,,,,,,,,,,,,,,,,,,,,,,,,,,,,,,,,,,,,,,,,,,10,20,Male,2021_Dec_15_0822,uniform_mix,2021.2.3,60.00744092344708,
,,,,,,,,,,,,,,,,,,,,,,,,,,,,,,,,,,,,,,space,0.21415850007906556,,,,,,,,,,,,,,,,,,,,,,,,,,,,,,,,,,,,,,,,,,,,,,,,,,,,,,10,20,Male,2021_Dec_15_0822,uniform_mix,2021.2.3,60.00744092344708,
,,,,,,,,,,,,,,,,,,,,,,,,,,,,,,,,,,,,,,,,space,0.5758126000873744,,,,,,,,,,,,,,,,,,,,,,,,,,,,,,,,,,,,,,,,,,,,,,,,,,,,10,20,Male,2021_Dec_15_0822,uniform_mix,2021.2.3,60.00744092344708,
,,,,,,,,,,,,,,,,,,,,,,,,,,,,,,,,,,,,,,,,,,space,0.49527009995654225,,,,,,,,,,,,,,,,,,,,,,,,,,,,,,,,,,,,,,,,,,,,,,,,,,10,20,Male,2021_Dec_15_0822,uniform_mix,2021.2.3,60.00744092344708,
,,,,,,,,,,,,,,,,,,,,,,,,,,,,,,,,,,,,,,,,,,,,space,1.3293396001681685,,,,,,,,,,,,,,,,,,,,,,,,,,,,,,,,,,,,,,,,,,,,,,,,10,20,Male,2021_Dec_15_0822,uniform_mix,2021.2.3,60.00744092344708,
,,,,,,,,,,,,,,,,,,,,,,,,,,,,,,,,,,,,,,,,,,,,,,space,38.666922400239855,,,,,,,,,,,,,,,,,,,,,,,,,,,,,,,,,,,,,,,,,,,,,,10,20,Male,2021_Dec_15_0822,uniform_mix,2021.2.3,60.00744092344708,
,,,,,,,,,,,,,,,,,,,,,,,,,,,,,,,,,,,,,,,,,,,,,,,,space,0.5782322003506124,space,1.8997197998687625,1015.9051898997277,1016.0784148997627,1016.0784148997627,None,,space,2.423267100006342,,,,,,,,,,,,,,,,,,,,,,,,,,,,,,,,,,,10,20,Male,2021_Dec_15_0822,uniform_mix,2021.2.3,60.00744092344708,
,,,,,,,,,,,,,,,,,,,,,,,,,,,,,,,,,,,,,,,,,,,,,,,,,,,,,,,,,,,1019.6459233998321,None,space,0.8837680001743138,1019.6459233998321,None,,,,,,,,,,,,,,,,,,,,,,,,,,,,,10,20,Male,2021_Dec_15_0822,uniform_mix,2021.2.3,60.00744092344708,
c6_black_ref.xlsx,c6_black_t.xlsx,c6_black.xlsx,stims/blackref7.png,52,,,,,,,,,,,,,,,,,,,,0,0,0,0,0,0,0,1,,,,,,,,,,,,,,,,,,,space,2.636069799773395,,,,,,,,,,,,,,n,7.119529100134969,space,31.245421700179577,1062.8743214998394,1063.0513610001653,1063.0513610001653,None,1063.3009075997397,None,space,6.948061799630523,1063.3009075997397,None,space,14.132476000115275,,,,,,,,,,,,,10,20,Male,2021_Dec_15_0822,uniform_mix,2021.2.3,60.00744092344708,
c6_black_ref.xlsx,c6_black_t.xlsx,c6_black.xlsx,stims/blackref10.png,73,,,,,,,,,,,,,,,,,,,,0,0,0,0,0,1,1,4,,,,,,,,,,,,,,,,,,,space,1.3715630997903645,,,,,,,,,,,,,,n,0.4340337999165058,space,0.8645624001510441,1088.2835610997863,1088.4526943000965,1088.4526943000965,None,1088.727307499852,None,space,4.4330249996855855,1088.727307499852,None,space,0.6919002002105117,,,,,,,,,,,,,10,20,Male,2021_Dec_15_0822,uniform_mix,2021.2.3,60.00744092344708,
c6_black_ref.xlsx,c6_black_t.xlsx,c6_black.xlsx,stims/blackref6.png,59,,,,,,,,,,,,,,,,,,,,0,0,0,0,0,2,2,0,,,,,,,,,,,,,,,,,,,space,0.767019699793309,,,,,,,,,,,,,,n,0.7250137999653816,space,0.7677638004533947,1097.2830285001546,1097.451698599849,1097.451698599849,None,1097.7069048997946,None,space,0.8363430998288095,1097.7069048997946,None,space,1.1669304999522865,,,,,,,,,,,,,10,20,Male,2021_Dec_15_0822,uniform_mix,2021.2.3,60.00744092344708,
c6_black_ref.xlsx,c6_black_t.xlsx,c6_black.xlsx,stims/blackref8.png,66,,,,,,,,,,,,,,,,,,,,0,0,0,0,0,3,3,2,,,,,,,,,,,,,,,,,,,space,0.7524025002494454,,,,,,,,,,,,,,n,0.4220274998806417,space,1.3427174999378622,1103.4094575000927,1103.579368900042,1103.579368900042,None,1103.8424986000173,None,space,0.6778029999695718,1103.8424986000173,None,space,2.441218299791217,,,,,,,,,,,,,10,20,Male,2021_Dec_15_0822,uniform_mix,2021.2.3,60.00744092344708,
c6_black_ref.xlsx,c6_black_t.xlsx,c6_black.xlsx,stims/blackref9.png,44,,,,,,,,,,,,,,,,,,,,0,0,0,0,0,4,4,3,,,,,,,,,,,,,,,,,,,space,0.847594200167805,,,,,,,,,,,,,,n,0.3627112996764481,space,0.7641930999234319,1110.1074534999207,1110.2774551999755,1110.2774551999755,None,1110.5390296997502,None,space,0.7571886000223458,1110.5390296997502,None,space,2.3041883003897965,,,,,,,,,,,,,10,20,Male,2021_Dec_15_0822,uniform_mix,2021.2.3,60.00744092344708,
c6_black_ref.xlsx,c6_black_t.xlsx,c6_black.xlsx,stims/black264.png,,264,914,0.6,64,"[(-20.0, -210.0), (100.0, 0.0), (-50.0, -140.0), (0.0, -110.0), (300.0, -20.0), (140.0, 30.0), (80.0, -180.0), (-100.0, 80.0), (70.0, -110.0), (-220.0, 110.0), (-210.0, 10.0), (-170.0, -60.0), (-120.0, 20.0), (140.0, 220.0), (-300.0, -50.0), (-140.0, 200.0), (180.0, 130.0), (250.0, -180.0), (-230.0, -180.0), (-70.0, -90.0), (90.0, -60.0), (300.0, 170.0), (190.0, -90.0), (-50.0, 90.0), (100.0, 80.0), (-60.0, 160.0), (0.0, 130.0), (-100.0, -30.0), (20.0, 210.0), (70.0, 150.0), (-290.0, 210.0), (-120.0, -200.0), (114.85371379641897, 68.64566671378324), (63.303705648924165, -123.87765706435115), (-262.77068588101343, 267.28199201341835), (-164.3807730199175, -185.75302345019088), (16.22924570302453, 134.0630767783638), (-127.68785689866564, 226.11320916621372), (217.8222943986874, -209.88494800654095), (84.7628687755282, -73.49299411194086), (87.81351009377371, 240.399564384391), (-69.37182572703126, 84.44728200373775), (-128.6178666348469, -7.51316484116164), (170.079537086655, 156.85481479700127), (-57.756767769479666, -96.34258089841927), (-212.94099045638964, -22.073506537020734), (-219.32305211152607, 78.98183980996521), (288.34144062737414, 235.17582068215998), (54.8814834234513, 196.24622389773654), (-0.6982457051910558, 230.06908311945162), (187.67906895748183, -121.50496042637769), (209.6983491839507, -57.28542324980853), (-189.29361663293594, -38.30678519599286), (-151.77386167307816, -85.75466608392884), (-36.62786815543933, 177.67908178306777), (-83.38634192243612, 144.67902795680618), (-107.89866036016835, -16.81041546164471), (-90.3766237755827, -47.14124675666204), (-325.6490377936153, 1.7134645806785898), (-272.14981919726426, -85.49006261666688), (-269.24428839542725, -129.2183054742308), (-209.9587350468985, -232.62002033087953), (97.67138365304811, 137.91783770514039), (46.9279584883317, 149.77213042068354)]","[(-20.0, -210.0), (100.0, 0.0), (-50.0, -140.0), (0.0, -110.0), (300.0, -20.0), (140.0, 30.0), (80.0, -180.0), (-100.0, 80.0), (70.0, -110.0), (-220.0, 110.0), (-210.0, 10.0), (-170.0, -60.0), (-120.0, 20.0), (140.0, 220.0), (-300.0, -50.0), (-140.0, 200.0), (180.0, 130.0), (250.0, -180.0), (-230.0, -180.0), (-70.0, -90.0), (90.0, -60.0), (300.0, 170.0), (190.0, -90.0), (-50.0, 90.0), (100.0, 80.0), (-60.0, 160.0), (0.0, 130.0), (-100.0, -30.0), (20.0, 210.0), (70.0, 150.0), (-290.0, 210.0), (-120.0, -200.0)]","[(114.85371379641897, 68.64566671378324), (63.303705648924165, -123.87765706435115), (-262.77068588101343, 267.28199201341835), (-164.3807730199175, -185.75302345019088), (16.22924570302453, 134.0630767783638), (-127.68785689866564, 226.11320916621372), (217.8222943986874, -209.88494800654095), (84.7628687755282, -73.49299411194086), (87.81351009377371, 240.399564384391), (-69.37182572703126, 84.44728200373775), (-128.6178666348469, -7.51316484116164), (170.079537086655, 156.85481479700127), (-57.756767769479666, -96.34258089841927), (-212.94099045638964, -22.073506537020734), (-219.32305211152607, 78.98183980996521), (288.34144062737414, 235.17582068215998), (54.8814834234513, 196.24622389773654), (-0.6982457051910558, 230.06908311945162), (187.67906895748183, -121.50496042637769), (209.6983491839507, -57.28542324980853), (-189.29361663293594, -38.30678519599286), (-151.77386167307816, -85.75466608392884), (-36.62786815543933, 177.67908178306777), (-83.38634192243612, 144.67902795680618), (-107.89866036016835, -16.81041546164471), (-90.3766237755827, -47.14124675666204), (-325.6490377936153, 1.7134645806785898), (-272.14981919726426, -85.49006261666688), (-269.24428839542725, -129.2183054742308), (-209.9587350468985, -232.62002033087953), (97.67138365304811, 137.91783770514039), (46.9279584883317, 149.77213042068354)]",0.5,tangential,129.89,1162.13,13.24,18.01,0.0551,4,,,,,0,0,0,0,,,,,0,0,0,119,,,,,,,,,,,,,,,space,0.7001577001065016,,,,,,,,,,,,,,,,,,,,,,,,,,,,,,space,2.145511600188911,1116.89471579995,None,,,,,,,,,10,20,Male,2021_Dec_15_0822,uniform_mix,2021.2.3,60.00744092344708,
c6_black_ref.xlsx,c6_black_t.xlsx,c6_black.xlsx,stims/black180.png,,180,2303,0.6,58,"[(-90.0, -170.0), (20.0, 200.0), (140.0, -10.0), (50.0, 120.0), (-240.0, -220.0), (-150.0, 140.0), (270.0, 180.0), (120.0, -80.0), (-100.0, 20.0), (-100.0, 70.0), (210.0, 40.0), (-280.0, -90.0), (-100.0, -40.0), (-60.0, 150.0), (-300.0, 140.0), (200.0, -190.0), (100.0, -210.0), (40.0, -130.0), (60.0, -80.0), (-10.0, -220.0), (130.0, 210.0), (110.0, 120.0), (-30.0, -110.0), (260.0, -50.0), (-130.0, -90.0), (-210.0, 50.0), (-20.0, 110.0), (100.0, 30.0), (-150.0, -10.0), (-127.42908742234195, 2.432551162256079), (44.23946809914435, -113.06855467427212), (-14.506709367049357, -171.94630260602764), (-114.86192700905042, -70.14029115641118), (-232.9262435772845, 97.97388783734539), (83.34521341740852, 22.8849682571885), (-91.54439176699866, 59.59740737942343), (-345.77343645034546, -117.02446621186127), (-243.03726499184665, 57.74368453325509), (295.7513024593197, -44.41070386187957), (97.97645082563704, -246.12032515250394), (231.9009143730835, -231.22092543465416), (71.34973369135074, -87.66594758721013), (161.3947786104148, 221.80524245721452), (-23.394290328904923, 134.0001207516832), (-52.402311419314, 129.71940871678993), (-77.23298158895933, 184.66634508772816), (-27.78777754933199, -85.45210302981914), (-41.914340252437995, -120.50651845741467), (104.77679504363056, -76.57976499186744), (130.14009734338856, -99.96641929356957), (-80.68285366037244, 15.67026946442262), (-111.52813234234213, 13.553452658804307), (100.53027265654485, 95.23121339958034), (124.66122939575448, 139.84839012388352), (-84.03780190192262, -32.56641482193784), (-112.77446167257689, -43.68880159984023), (183.5984154395755, 33.8955166352235), (238.57048433136328, 48.39941565135847)]","[(-90.0, -170.0), (20.0, 200.0), (140.0, -10.0), (50.0, 120.0), (-240.0, -220.0), (-150.0, 140.0), (270.0, 180.0), (120.0, -80.0), (-100.0, 20.0), (-100.0, 70.0), (210.0, 40.0), (-280.0, -90.0), (-100.0, -40.0), (-60.0, 150.0), (-300.0, 140.0), (200.0, -190.0), (100.0, -210.0), (40.0, -130.0), (60.0, -80.0), (-10.0, -220.0), (130.0, 210.0), (110.0, 120.0), (-30.0, -110.0), (260.0, -50.0), (-130.0, -90.0), (-210.0, 50.0), (-20.0, 110.0), (100.0, 30.0), (-150.0, -10.0)]","[(-127.42908742234195, 2.432551162256079), (44.23946809914435, -113.06855467427212), (-14.506709367049357, -171.94630260602764), (-114.86192700905042, -70.14029115641118), (-232.9262435772845, 97.97388783734539), (83.34521341740852, 22.8849682571885), (-91.54439176699866, 59.59740737942343), (-345.77343645034546, -117.02446621186127), (-243.03726499184665, 57.74368453325509), (295.7513024593197, -44.41070386187957), (97.97645082563704, -246.12032515250394), (231.9009143730835, -231.22092543465416), (71.34973369135074, -87.66594758721013), (161.3947786104148, 221.80524245721452), (-23.394290328904923, 134.0001207516832), (-52.402311419314, 129.71940871678993), (-77.23298158895933, 184.66634508772816), (-27.78777754933199, -85.45210302981914), (-41.914340252437995, -120.50651845741467), (104.77679504363056, -76.57976499186744), (130.14009734338856, -99.96641929356957), (-80.68285366037244, 15.67026946442262), (-111.52813234234213, 13.553452658804307), (100.53027265654485, 95.23121339958034), (124.66122939575448, 139.84839012388352), (-84.03780190192262, -32.56641482193784), (-112.77446167257689, -43.68880159984023), (183.5984154395755, 33.8955166352235), (238.57048433136328, 48.39941565135847)]",0.5,radial,123.74,1054.19,11.89,16.47,0.055,4,,,,,0,0,0,0,,,,,0,1,1,35,,,,,,,,,,,,,,,space,2.6681105997413397,,,,,70,,,,,,,,,,,,,,,,,,,,,,,,,,,1123.3520690998994,None,,,,,,,,,10,20,Male,2021_Dec_15_0822,uniform_mix,2021.2.3,60.00744092344708,
c6_black_ref.xlsx,c6_black_t.xlsx,c6_black.xlsx,stims/black223.png,,223,1115,0.6,56,"[(-230.0, -220.0), (300.0, 120.0), (-110.0, 210.0), (100.0, -160.0), (130.0, -90.0), (100.0, -40.0), (120.0, 180.0), (20.0, 110.0), (0.0, 220.0), (-90.0, 80.0), (120.0, 20.0), (-50.0, -90.0), (80.0, 100.0), (-220.0, -50.0), (-210.0, 170.0), (300.0, -170.0), (180.0, -220.0), (-120.0, 10.0), (-300.0, 80.0), (-100.0, -60.0), (-100.0, -150.0), (230.0, -60.0), (-170.0, 50.0), (170.0, 100.0), (-50.0, -220.0), (50.0, -120.0), (-60.0, 130.0), (0.0, -110.0), (270.5204145032901, -211.48845448210386), (302.76855951239634, -126.25631194591136), (-37.298867741902626, 143.09423981500777), (-77.57222172300092, 135.19385846995016), (-119.86652313908763, 35.88085135030789), (-115.31179194794309, -9.952193400994219), (-173.37706775432758, 78.99396494183594), (-189.26635566919387, 38.121879824767916), (42.26147081932146, -135.68317182763658), (79.72628021829442, -107.82090816070838), (-264.79746972344924, 108.6572735477908), (-297.6098810003663, 18.149216392409073), (189.81487035739036, 61.26630828327819), (171.71857513493433, 127.00552210257649), (-119.29231420806497, -123.06317416688333), (-64.16732842463347, -163.39580372507928), (-11.128068124176934, -116.04248272951104), (13.127120073833566, -109.94936757362017), (126.60726391507859, -257.56393338715293), (228.84400335182264, -180.1979998219994), (-114.77663044447971, -50.12009616162001), (-91.84228717598754, -73.81585509486285), (-168.8840658263179, 205.48808657406258), (-249.63402187902273, 119.19678203866994), (227.25747864605452, -109.64234704703463), (238.48419036699997, -28.82212339470408), (-87.82020369915932, -221.6203052123775), (-25.797578273701617, -216.25392566320613)]","[(-230.0, -220.0), (300.0, 120.0), (-110.0, 210.0), (100.0, -160.0), (130.0, -90.0), (100.0, -40.0), (120.0, 180.0), (20.0, 110.0), (0.0, 220.0), (-90.0, 80.0), (120.0, 20.0), (-50.0, -90.0), (80.0, 100.0), (-220.0, -50.0), (-210.0, 170.0), (300.0, -170.0), (180.0, -220.0), (-120.0, 10.0), (-300.0, 80.0), (-100.0, -60.0), (-100.0, -150.0), (230.0, -60.0), (-170.0, 50.0), (170.0, 100.0), (-50.0, -220.0), (50.0, -120.0), (-60.0, 130.0), (0.0, -110.0)]","[(270.5204145032901, -211.48845448210386), (302.76855951239634, -126.25631194591136), (-37.298867741902626, 143.09423981500777), (-77.57222172300092, 135.19385846995016), (-119.86652313908763, 35.88085135030789), (-115.31179194794309, -9.952193400994219), (-173.37706775432758, 78.99396494183594), (-189.26635566919387, 38.121879824767916), (42.26147081932146, -135.68317182763658), (79.72628021829442, -107.82090816070838), (-264.79746972344924, 108.6572735477908), (-297.6098810003663, 18.149216392409073), (189.81487035739036, 61.26630828327819), (171.71857513493433, 127.00552210257649), (-119.29231420806497, -123.06317416688333), (-64.16732842463347, -163.39580372507928), (-11.128068124176934, -116.04248272951104), (13.127120073833566, -109.94936757362017), (126.60726391507859, -257.56393338715293), (228.84400335182264, -180.1979998219994), (-114.77663044447971, -50.12009616162001), (-91.84228717598754, -73.81585509486285), (-168.8840658263179, 205.48808657406258), (-249.63402187902273, 119.19678203866994), (227.25747864605452, -109.64234704703463), (238.48419036699997, -28.82212339470408), (-87.82020369915932, -221.6203052123775), (-25.797578273701617, -216.25392566320613)]",0,tangential,119.6,1017.36,13.07,17.75,0.055,3,,,,,0,0,0,0,,,,,0,2,2,78,,,,,,,,,,,,,,,space,2.2685495000332594,,,,,70,,,,,,,,,,,,,,,,,,,,,,,,,,,1132.9722736999393,None,,,,,,,,,10,20,Male,2021_Dec_15_0822,uniform_mix,2021.2.3,60.00744092344708,
c6_black_ref.xlsx,c6_black_t.xlsx,c6_black.xlsx,stims/black210.png,,210,861,0.6,62,"[(-290.0, 210.0), (-130.0, 70.0), (300.0, -50.0), (50.0, -190.0), (120.0, 40.0), (-60.0, 80.0), (-110.0, 140.0), (70.0, 170.0), (80.0, -60.0), (-180.0, 20.0), (130.0, -120.0), (-140.0, -90.0), (-240.0, 90.0), (210.0, 10.0), (60.0, -120.0), (30.0, 120.0), (-220.0, -60.0), (-300.0, -170.0), (-20.0, 210.0), (230.0, -180.0), (-110.0, -20.0), (-40.0, 140.0), (-60.0, -190.0), (300.0, 180.0), (-150.0, -190.0), (-80.0, -90.0), (100.0, 110.0), (-10.0, 100.0), (160.0, 190.0), (-10.0, -100.0), (130.0, -50.0), (-241.89017612038322, 207.6928449969169), (-113.32918907656065, 57.887936525579164), (234.58127048268386, -28.631378689632207), (54.57242623646148, -154.909355998376), (97.14131305509144, 31.636417626853405), (-47.51994010823123, 77.26548136098941), (-86.81893709361451, 123.79691271359798), (73.88456340952851, 144.38415411963487), (67.14765458175657, -59.519008381945284), (-153.35857897817198, 29.55715254611842), (115.18439207314563, -105.70549859079901), (-109.40705792901396, -81.13065961431765), (-180.7790502518891, 74.0795522068299), (183.01858568970724, -1.8855133681068743), (44.50203371959068, -108.77264573825097), (36.35886438340217, 143.07454598511202), (-248.1265094803895, -86.36902002417855), (-317.8337207863209, -213.13691284602234), (-23.398343090537768, 242.0998174072984), (272.8766783790433, -196.0231389435588), (-129.3063368594218, -18.667436387455993), (-41.22866154436142, 167.30207589989885), (-77.08208033339196, -205.94554092968679), (332.3321201201501, 195.8071861145611), (-170.88882007462533, -205.70909906440275), (-91.85773504811914, -105.14454462236361), (114.84129430470972, 127.5872658845373), (-11.373618650208405, 118.74551202245787), (193.81583041200378, 232.69738657250363), (-18.44841079035435, -115.27558832438984), (160.57797917345556, -58.51623306840989)]","[(-290.0, 210.0), (-130.0, 70.0), (300.0, -50.0), (50.0, -190.0), (120.0, 40.0), (-60.0, 80.0), (-110.0, 140.0), (70.0, 170.0), (80.0, -60.0), (-180.0, 20.0), (130.0, -120.0), (-140.0, -90.0), (-240.0, 90.0), (210.0, 10.0), (60.0, -120.0), (30.0, 120.0), (-220.0, -60.0), (-300.0, -170.0), (-20.0, 210.0), (230.0, -180.0), (-110.0, -20.0), (-40.0, 140.0), (-60.0, -190.0), (300.0, 180.0), (-150.0, -190.0), (-80.0, -90.0), (100.0, 110.0), (-10.0, 100.0), (160.0, 190.0), (-10.0, -100.0), (130.0, -50.0)]","[(-241.89017612038322, 207.6928449969169), (-113.32918907656065, 57.887936525579164), (234.58127048268386, -28.631378689632207), (54.57242623646148, -154.909355998376), (97.14131305509144, 31.636417626853405), (-47.51994010823123, 77.26548136098941), (-86.81893709361451, 123.79691271359798), (73.88456340952851, 144.38415411963487), (67.14765458175657, -59.519008381945284), (-153.35857897817198, 29.55715254611842), (115.18439207314563, -105.70549859079901), (-109.40705792901396, -81.13065961431765), (-180.7790502518891, 74.0795522068299), (183.01858568970724, -1.8855133681068743), (44.50203371959068, -108.77264573825097), (36.35886438340217, 143.07454598511202), (-248.1265094803895, -86.36902002417855), (-317.8337207863209, -213.13691284602234), (-23.398343090537768, 242.0998174072984), (272.8766783790433, -196.0231389435588), (-129.3063368594218, -18.667436387455993), (-41.22866154436142, 167.30207589989885), (-77.08208033339196, -205.94554092968679), (332.3321201201501, 195.8071861145611), (-170.88882007462533, -205.70909906440275), (-91.85773504811914, -105.14454462236361), (114.84129430470972, 127.5872658845373), (-11.373618650208405, 118.74551202245787), (193.81583041200378, 232.69738657250363), (-18.44841079035435, -115.27558832438984), (160.57797917345556, -58.51623306840989)]",1,radial,133.56,1127.69,12.54,17.34,0.055,2,,,,,0,0,0,0,,,,,0,3,3,65,,,,,,,,,,,,,,,space,0.6768636996857822,,,,,60,,,,,,,,,,,,,,,,,,,,,,,,,,,1139.0130022997037,None,,,,,,,,,10,20,Male,2021_Dec_15_0822,uniform_mix,2021.2.3,60.00744092344708,
c6_black_ref.xlsx,c6_black_t.xlsx,c6_black.xlsx,stims/black244.png,,244,1934,0.6,54,"[(-150.0, 10.0), (-260.0, -30.0), (190.0, 190.0), (180.0, 90.0), (-50.0, -90.0), (-100.0, -130.0), (-120.0, -50.0), (110.0, 10.0), (130.0, -220.0), (100.0, -130.0), (-270.0, -150.0), (-230.0, 120.0), (70.0, 150.0), (300.0, -10.0), (0.0, -110.0), (200.0, -40.0), (20.0, -200.0), (10.0, 140.0), (-60.0, 90.0), (-110.0, -220.0), (-100.0, 30.0), (100.0, 80.0), (-60.0, 190.0), (-130.0, 130.0), (290.0, -210.0), (50.0, -90.0), (120.0, -70.0), (101.92302983035484, -98.55122194005078), (190.73573074612227, -68.22538835190514), (-18.071461287489498, -114.7594510396614), (-307.9695862319783, -93.79847209634198), (-208.69364808967026, 175.4220982695873), (110.8991015488335, -9.436434352989423), (-53.09161322600387, 104.96075899038601), (296.25208098036484, 47.860098119864546), (44.232720597155634, -180.69013481000866), (118.27061765220415, -110.15585811567676), (-15.110574875155393, 134.508025818423), (-68.63209564766808, -228.98646683826442), (165.55040562026323, -181.50738577913478), (87.10029296945048, 94.00130464716484), (-144.2667141507178, 100.20781907880284), (37.04662906737899, -100.05057514731969), (68.9441618959537, -85.59797615270958), (-23.445811604267703, 200.54003595112874), (-91.82840571737995, 178.1689935729605), (99.08448276537784, 137.37041718843514), (33.440258244902, 160.00979700381492), (-125.0839481201073, -34.85299285339323), (-105.95723588545795, -59.03639793681063), (-94.10018274932887, 50.33386701876918), (-101.86325102893095, 14.312565556298154), (249.26217322351462, -254.59206899105104), (330.49682245697915, -162.3205011038649)]","[(-150.0, 10.0), (-260.0, -30.0), (190.0, 190.0), (180.0, 90.0), (-50.0, -90.0), (-100.0, -130.0), (-120.0, -50.0), (110.0, 10.0), (130.0, -220.0), (100.0, -130.0), (-270.0, -150.0), (-230.0, 120.0), (70.0, 150.0), (300.0, -10.0), (0.0, -110.0), (200.0, -40.0), (20.0, -200.0), (10.0, 140.0), (-60.0, 90.0), (-110.0, -220.0), (-100.0, 30.0), (100.0, 80.0), (-60.0, 190.0), (-130.0, 130.0), (290.0, -210.0), (50.0, -90.0), (120.0, -70.0)]","[(101.92302983035484, -98.55122194005078), (190.73573074612227, -68.22538835190514), (-18.071461287489498, -114.7594510396614), (-307.9695862319783, -93.79847209634198), (-208.69364808967026, 175.4220982695873), (110.8991015488335, -9.436434352989423), (-53.09161322600387, 104.96075899038601), (296.25208098036484, 47.860098119864546), (44.232720597155634, -180.69013481000866), (118.27061765220415, -110.15585811567676), (-15.110574875155393, 134.508025818423), (-68.63209564766808, -228.98646683826442), (165.55040562026323, -181.50738577913478), (87.10029296945048, 94.00130464716484), (-144.2667141507178, 100.20781907880284), (37.04662906737899, -100.05057514731969), (68.9441618959537, -85.59797615270958), (-23.445811604267703, 200.54003595112874), (-91.82840571737995, 178.1689935729605), (99.08448276537784, 137.37041718843514), (33.440258244902, 160.00979700381492), (-125.0839481201073, -34.85299285339323), (-105.95723588545795, -59.03639793681063), (-94.10018274932887, 50.33386701876918), (-101.86325102893095, 14.312565556298154), (249.26217322351462, -254.59206899105104), (330.49682245697915, -162.3205011038649)]",0.5,tangential,118.11,979.66,12.19,16.77,0.0551,4,,,,,0,0,0,0,,,,,0,4,4,99,,,,,,,,,,,,,,,space,0.6362016000784934,,,,,65,,,,,,,,,,,,,,,,,,,,,,,,,,,1142.5618137000129,None,,,,,,,,,10,20,Male,2021_Dec_15_0822,uniform_mix,2021.2.3,60.00744092344708,
c6_black_ref.xlsx,c6_black_t.xlsx,c6_black.xlsx,stims/black198.png,,198,1772,0.6,56,"[(-80.0, 70.0), (-250.0, 10.0), (-130.0, 220.0), (-10.0, -140.0), (-90.0, -60.0), (100.0, 70.0), (290.0, -150.0), (160.0, 30.0), (-260.0, -200.0), (290.0, 110.0), (-60.0, -110.0), (10.0, 110.0), (70.0, -210.0), (-50.0, -220.0), (-130.0, -130.0), (0.0, 180.0), (230.0, -40.0), (90.0, 160.0), (180.0, 180.0), (-100.0, 0.0), (-260.0, 140.0), (100.0, -20.0), (180.0, -220.0), (130.0, -110.0), (-60.0, 140.0), (-140.0, 80.0), (70.0, -80.0), (-170.0, -30.0), (-75.79608428181197, 54.622231023941616), (-198.49801955946907, 20.447779119955037), (-106.13554216675148, 176.74259933557622), (-8.0550573451678, -107.08068872864177), (-71.28600536887981, -44.634058826714536), (88.68902725168053, 64.8650021946909), (221.8172475304869, -109.94861301096942), (141.99166377690582, 32.98140517069946), (-201.14157208364054, -146.58904476753824), (254.343488018547, 75.402698306474), (-48.19326432141292, -90.52168798351379), (6.988038519104444, 97.94957193304734), (44.29018680862961, -178.28756253574375), (-40.7971227000968, -179.92258407327955), (-161.075897623192, -151.2072730680551), (2.2376975994307315, 205.23688550383133), (282.44685341920234, -39.64138901639512), (87.72922928735917, 186.83471299137963), (208.46267081939806, 215.30130500732378), (-120.22080965377677, -3.900977301334178), (-298.8143321811688, 134.61124978483895), (114.35182257868115, -17.289141524846514), (205.22101859702173, -242.69652456704438), (154.4013920540168, -115.6271744433553), (-75.26692149529148, 154.75633837503406), (-171.27007169881216, 100.39089629886314), (80.03605861952654, -99.90673810795425), (-191.64727132333917, -41.134349035505565)]","[(-80.0, 70.0), (-250.0, 10.0), (-130.0, 220.0), (-10.0, -140.0), (-90.0, -60.0), (100.0, 70.0), (290.0, -150.0), (160.0, 30.0), (-260.0, -200.0), (290.0, 110.0), (-60.0, -110.0), (10.0, 110.0), (70.0, -210.0), (-50.0, -220.0), (-130.0, -130.0), (0.0, 180.0), (230.0, -40.0), (90.0, 160.0), (180.0, 180.0), (-100.0, 0.0), (-260.0, 140.0), (100.0, -20.0), (180.0, -220.0), (130.0, -110.0), (-60.0, 140.0), (-140.0, 80.0), (70.0, -80.0), (-170.0, -30.0)]","[(-75.79608428181197, 54.622231023941616), (-198.49801955946907, 20.447779119955037), (-106.13554216675148, 176.74259933557622), (-8.0550573451678, -107.08068872864177), (-71.28600536887981, -44.634058826714536), (88.68902725168053, 64.8650021946909), (221.8172475304869, -109.94861301096942), (141.99166377690582, 32.98140517069946), (-201.14157208364054, -146.58904476753824), (254.343488018547, 75.402698306474), (-48.19326432141292, -90.52168798351379), (6.988038519104444, 97.94957193304734), (44.29018680862961, -178.28756253574375), (-40.7971227000968, -179.92258407327955), (-161.075897623192, -151.2072730680551), (2.2376975994307315, 205.23688550383133), (282.44685341920234, -39.64138901639512), (87.72922928735917, 186.83471299137963), (208.46267081939806, 215.30130500732378), (-120.22080965377677, -3.900977301334178), (-298.8143321811688, 134.61124978483895), (114.35182257868115, -17.289141524846514), (205.22101859702173, -242.69652456704438), (154.4013920540168, -115.6271744433553), (-75.26692149529148, 154.75633837503406), (-171.27007169881216, 100.39089629886314), (80.03605861952654, -99.90673810795425), (-191.64727132333917, -41.134349035505565)]",1,radial,121.11,1019.03,12.43,17.14,0.055,2,,,,,0,0,0,0,,,,,0,5,5,53,,,,,,,,,,,,,,,space,0.6503635002300143,,,,,75,,,,,,,,,,,,,,,,,,,,,,,,,,,1145.4483596999198,None,,,,,,,,,10,20,Male,2021_Dec_15_0822,uniform_mix,2021.2.3,60.00744092344708,
c6_black_ref.xlsx,c6_black_t.xlsx,c6_black.xlsx,stims/black187.png,,187,262,0.6,62,"[(40.0, 110.0), (80.0, -140.0), (120.0, -40.0), (-230.0, 200.0), (90.0, 160.0), (-90.0, 150.0), (90.0, 80.0), (150.0, -100.0), (-140.0, -70.0), (-150.0, -220.0), (30.0, 210.0), (0.0, -130.0), (-20.0, 150.0), (-50.0, 90.0), (-260.0, 20.0), (-200.0, 90.0), (70.0, -80.0), (-120.0, 70.0), (-100.0, -20.0), (-260.0, -180.0), (270.0, 210.0), (-60.0, -90.0), (240.0, -210.0), (250.0, 20.0), (0.0, 100.0), (60.0, -220.0), (150.0, 40.0), (-80.0, -150.0), (-150.0, 10.0), (190.0, 110.0), (100.0, 10.0), (56.565858293448635, -70.93066836376276), (-153.0569629046497, 67.10843891009331), (57.952298842523334, -196.0560032945868), (-46.41092819960123, 75.8414505909401), (-92.3257947597497, 60.13836805069526), (218.57940003787022, -3.288579437461236), (-48.02453280370456, -75.04017387343785), (-206.68940602498168, -162.38547476280075), (-12.689327351079836, 170.08221674197392), (-184.1673041112337, 16.16182191106514), (-175.0663358018566, -257.7458646868398), (50.17593139952482, 234.9941966845589), (-167.58526500374774, -76.19186614183833), (286.09936361674824, 244.63550503256735), (-304.3992023206596, 5.0572055949270975), (177.55638006511424, -101.34682933642019), (278.27701563669143, -251.5915343016133), (-58.95826303501363, -123.77211982606804), (-97.74428709308644, -179.70950037679026), (0.5850820065114561, -115.30175893268704), (-4.881013861731358, -143.6738161722475), (-79.20077475457083, -15.276342553195175), (-120.1346128909565, -21.936407541769398), (0.9194433576986576, 86.8655129472295), (-0.755809838716587, 118.08416564610681), (127.89263732001608, 32.62951202348352), (179.3934683609599, 50.49375013239809), (85.32177547927506, 11.630246140094899), (121.75581135664807, 6.956548173626738), (155.06910597235887, 80.97665962763172), (215.7637043735825, 134.6232057659002)]","[(40.0, 110.0), (80.0, -140.0), (120.0, -40.0), (-230.0, 200.0), (90.0, 160.0), (-90.0, 150.0), (90.0, 80.0), (150.0, -100.0), (-140.0, -70.0), (-150.0, -220.0), (30.0, 210.0), (0.0, -130.0), (-20.0, 150.0), (-50.0, 90.0), (-260.0, 20.0), (-200.0, 90.0), (70.0, -80.0), (-120.0, 70.0), (-100.0, -20.0), (-260.0, -180.0), (270.0, 210.0), (-60.0, -90.0), (240.0, -210.0), (250.0, 20.0), (0.0, 100.0), (60.0, -220.0), (150.0, 40.0), (-80.0, -150.0), (-150.0, 10.0), (190.0, 110.0), (100.0, 10.0)]","[(56.565858293448635, -70.93066836376276), (-153.0569629046497, 67.10843891009331), (57.952298842523334, -196.0560032945868), (-46.41092819960123, 75.8414505909401), (-92.3257947597497, 60.13836805069526), (218.57940003787022, -3.288579437461236), (-48.02453280370456, -75.04017387343785), (-206.68940602498168, -162.38547476280075), (-12.689327351079836, 170.08221674197392), (-184.1673041112337, 16.16182191106514), (-175.0663358018566, -257.7458646868398), (50.17593139952482, 234.9941966845589), (-167.58526500374774, -76.19186614183833), (286.09936361674824, 244.63550503256735), (-304.3992023206596, 5.0572055949270975), (177.55638006511424, -101.34682933642019), (278.27701563669143, -251.5915343016133), (-58.95826303501363, -123.77211982606804), (-97.74428709308644, -179.70950037679026), (0.5850820065114561, -115.30175893268704), (-4.881013861731358, -143.6738161722475), (-79.20077475457083, -15.276342553195175), (-120.1346128909565, -21.936407541769398), (0.9194433576986576, 86.8655129472295), (-0.755809838716587, 118.08416564610681), (127.89263732001608, 32.62951202348352), (179.3934683609599, 50.49375013239809), (85.32177547927506, 11.630246140094899), (121.75581135664807, 6.956548173626738), (155.06910597235887, 80.97665962763172), (215.7637043735825, 134.6232057659002)]",0.5,radial,129.73,1126.86,11.85,16.45,0.055,3,,,,,0,0,0,0,,,,,0,6,6,42,,,,,,,,,,,,,,,space,0.533925199881196,,,,,70,,,,,,,,,,,,,,,,,,,,,,,,,,,1148.498013000004,None,,,,,,,,,10,20,Male,2021_Dec_15_0822,uniform_mix,2021.2.3,60.00744092344708,
c6_black_ref.xlsx,c6_black_t.xlsx,c6_black.xlsx,stims/black230.png,,230,123,0.6,60,"[(10.0, 150.0), (280.0, -40.0), (-190.0, -90.0), (-130.0, 100.0), (-130.0, 30.0), (-160.0, -20.0), (120.0, -200.0), (140.0, 110.0), (-240.0, -200.0), (-100.0, -100.0), (80.0, -100.0), (50.0, -150.0), (210.0, 70.0), (280.0, -200.0), (-10.0, 100.0), (20.0, -100.0), (-110.0, -180.0), (-100.0, -30.0), (80.0, 180.0), (-60.0, 90.0), (-280.0, 40.0), (-250.0, 190.0), (-60.0, 210.0), (-40.0, -130.0), (70.0, 90.0), (-10.0, -210.0), (110.0, 0.0), (190.0, 220.0), (150.0, -70.0), (300.0, 170.0), (-111.52985852761766, -13.420921384755744), (-97.38238776557365, -43.78531907235828), (-134.61830172975556, -174.48823410484152), (-78.89064524563707, -191.04601064649634), (-51.63530200725461, -119.20622832402934), (-14.995894742801298, -129.01859410979245), (129.93679613296274, -84.94303560821254), (167.86704043267784, -53.3056376235383), (-33.221643935995075, -213.34863118971282), (12.464023385054475, -214.89887109297922), (101.03995398042534, -13.444257431627165), (105.6330800622349, 20.920719057199193), (88.35082306738647, 86.14885815187715), (56.53738733001855, 96.90468876383957), (113.66169086846395, 164.52889870001113), (42.22678352712785, 193.98357126529652), (-210.11129243687017, 249.38450305770175), (-294.016843895227, 169.37532825387882), (231.6142201932148, 203.57290564438574), (157.54609679844015, 229.0582604735601), (328.2402091538601, 145.2659148339245), (273.2773053327303, 208.10732407672776), (9.373960344359148, -106.39842083640556), (31.105767283517906, -105.06090330585724), (-264.0611487460761, 105.34053275332687), (-289.6362753007139, -6.496881906903894), (-39.93172752444312, 101.18353678972552), (-77.30209230924908, 75.31702334261009), (-42.08471300660065, 234.22487732091665), (-90.96311069823892, 197.89052638975895)]","[(10.0, 150.0), (280.0, -40.0), (-190.0, -90.0), (-130.0, 100.0), (-130.0, 30.0), (-160.0, -20.0), (120.0, -200.0), (140.0, 110.0), (-240.0, -200.0), (-100.0, -100.0), (80.0, -100.0), (50.0, -150.0), (210.0, 70.0), (280.0, -200.0), (-10.0, 100.0), (20.0, -100.0), (-110.0, -180.0), (-100.0, -30.0), (80.0, 180.0), (-60.0, 90.0), (-280.0, 40.0), (-250.0, 190.0), (-60.0, 210.0), (-40.0, -130.0), (70.0, 90.0), (-10.0, -210.0), (110.0, 0.0), (190.0, 220.0), (150.0, -70.0), (300.0, 170.0)]","[(-111.52985852761766, -13.420921384755744), (-97.38238776557365, -43.78531907235828), (-134.61830172975556, -174.48823410484152), (-78.89064524563707, -191.04601064649634), (-51.63530200725461, -119.20622832402934), (-14.995894742801298, -129.01859410979245), (129.93679613296274, -84.94303560821254), (167.86704043267784, -53.3056376235383), (-33.221643935995075, -213.34863118971282), (12.464023385054475, -214.89887109297922), (101.03995398042534, -13.444257431627165), (105.6330800622349, 20.920719057199193), (88.35082306738647, 86.14885815187715), (56.53738733001855, 96.90468876383957), (113.66169086846395, 164.52889870001113), (42.22678352712785, 193.98357126529652), (-210.11129243687017, 249.38450305770175), (-294.016843895227, 169.37532825387882), (231.6142201932148, 203.57290564438574), (157.54609679844015, 229.0582604735601), (328.2402091538601, 145.2659148339245), (273.2773053327303, 208.10732407672776), (9.373960344359148, -106.39842083640556), (31.105767283517906, -105.06090330585724), (-264.0611487460761, 105.34053275332687), (-289.6362753007139, -6.496881906903894), (-39.93172752444312, 101.18353678972552), (-77.30209230924908, 75.31702334261009), (-42.08471300660065, 234.22487732091665), (-90.96311069823892, 197.89052638975895)]",0,tangential,126.34,1090.61,12.82,17.73,0.055,2,,,,,0,0,0,0,,,,,0,7,7,85,,,,,,,,,,,,,,,space,0.7828040001913905,,,,,60,,,,,,,,,,,,,,,,,,,,,,,,,,,1151.620122099761,None,,,,,,,,,10,20,Male,2021_Dec_15_0822,uniform_mix,2021.2.3,60.00744092344708,
c6_black_ref.xlsx,c6_black_t.xlsx,c6_black.xlsx,stims/black236.png,,236,454,0.6,62,"[(80.0, 220.0), (-120.0, -140.0), (0.0, 200.0), (100.0, -50.0), (-140.0, 180.0), (-260.0, -100.0), (70.0, 80.0), (-20.0, 100.0), (110.0, 30.0), (40.0, -100.0), (50.0, 130.0), (180.0, 200.0), (210.0, 0.0), (-70.0, 120.0), (-190.0, -10.0), (-260.0, 220.0), (-50.0, -110.0), (40.0, -160.0), (-20.0, -210.0), (-160.0, 70.0), (-150.0, -70.0), (140.0, -110.0), (-240.0, -220.0), (-270.0, 70.0), (-90.0, -60.0), (170.0, -200.0), (300.0, 80.0), (130.0, 110.0), (-90.0, 70.0), (300.0, -120.0), (-100.0, 20.0), (284.7485185971917, 137.08252125817341), (-158.32710439091613, 102.05472511991746), (-180.38536910527125, 48.03796581361138), (-246.1161167934494, 270.881882414022), (-271.6206393188804, 170.9557598125773), (131.07300141340394, -137.27969185096185), (158.74388662884877, -90.77210684979343), (-104.54869562599693, 31.33147438619153), (-104.5250188675569, 3.1858687456854824), (139.11085104077995, 90.83289811743026), (102.17081107027964, 124.66514088668674), (-69.91841719290639, -99.80966005685629), (-30.746588289065897, -120.7612528862562), (-70.69872320272202, -207.14904238989772), (19.21519737132175, -214.52264418882854), (19.017594795913254, -170.97867678047857), (58.30841760714995, -144.07751667919635), (-99.0545489460483, -38.9234050638357), (-77.79907080070183, -75.07253834913962), (-80.47919284535936, 90.24463830107533), (-106.6626743715814, 64.30110235347212), (145.5732296214053, -229.0327770899978), (191.66755349816918, -177.30097859086044), (-151.27288408749146, -43.33346600656806), (-131.91281564853384, -81.76681820199298), (-249.50500355598575, -179.3253256999295), (-187.56733501783395, -263.6261708386454), (-283.75713340461516, 104.42688332130564), (-289.1280120656895, 45.12157980171611), (267.83494720451614, -186.18948104957974), (339.58691026141094, -97.63298838434059)]","[(80.0, 220.0), (-120.0, -140.0), (0.0, 200.0), (100.0, -50.0), (-140.0, 180.0), (-260.0, -100.0), (70.0, 80.0), (-20.0, 100.0), (110.0, 30.0), (40.0, -100.0), (50.0, 130.0), (180.0, 200.0), (210.0, 0.0), (-70.0, 120.0), (-190.0, -10.0), (-260.0, 220.0), (-50.0, -110.0), (40.0, -160.0), (-20.0, -210.0), (-160.0, 70.0), (-150.0, -70.0), (140.0, -110.0), (-240.0, -220.0), (-270.0, 70.0), (-90.0, -60.0), (170.0, -200.0), (300.0, 80.0), (130.0, 110.0), (-90.0, 70.0), (300.0, -120.0), (-100.0, 20.0)]","[(284.7485185971917, 137.08252125817341), (-158.32710439091613, 102.05472511991746), (-180.38536910527125, 48.03796581361138), (-246.1161167934494, 270.881882414022), (-271.6206393188804, 170.9557598125773), (131.07300141340394, -137.27969185096185), (158.74388662884877, -90.77210684979343), (-104.54869562599693, 31.33147438619153), (-104.5250188675569, 3.1858687456854824), (139.11085104077995, 90.83289811743026), (102.17081107027964, 124.66514088668674), (-69.91841719290639, -99.80966005685629), (-30.746588289065897, -120.7612528862562), (-70.69872320272202, -207.14904238989772), (19.21519737132175, -214.52264418882854), (19.017594795913254, -170.97867678047857), (58.30841760714995, -144.07751667919635), (-99.0545489460483, -38.9234050638357), (-77.79907080070183, -75.07253834913962), (-80.47919284535936, 90.24463830107533), (-106.6626743715814, 64.30110235347212), (145.5732296214053, -229.0327770899978), (191.66755349816918, -177.30097859086044), (-151.27288408749146, -43.33346600656806), (-131.91281564853384, -81.76681820199298), (-249.50500355598575, -179.3253256999295), (-187.56733501783395, -263.6261708386454), (-283.75713340461516, 104.42688332130564), (-289.1280120656895, 45.12157980171611), (267.83494720451614, -186.18948104957974), (339.58691026141094, -97.63298838434059)]",0,tangential,127.09,1124.81,13.17,17.97,0.0551,4,,,,,0,0,0,0,,,,,0,8,8,91,,,,,,,,,,,,,,,space,0.6921113999560475,,,,,70,,,,,,,,,,,,,,,,,,,,,,,,,,,1154.7111991997808,None,,,,,,,,,10,20,Male,2021_Dec_15_0822,uniform_mix,2021.2.3,60.00744092344708,
c6_black_ref.xlsx,c6_black_t.xlsx,c6_black.xlsx,stims/black249.png,,249,3933,0.6,58,"[(230.0, -30.0), (-300.0, -20.0), (-130.0, -220.0), (-80.0, 70.0), (120.0, -70.0), (80.0, -220.0), (-100.0, -130.0), (-160.0, 40.0), (90.0, -130.0), (-140.0, 190.0), (-30.0, -220.0), (-50.0, -100.0), (-250.0, -200.0), (190.0, 200.0), (-100.0, 10.0), (-60.0, 110.0), (-20.0, 170.0), (-90.0, -50.0), (-300.0, 140.0), (-140.0, -30.0), (250.0, -180.0), (-180.0, -110.0), (80.0, 160.0), (10.0, -110.0), (100.0, -10.0), (300.0, 90.0), (110.0, 90.0), (170.0, 50.0), (30.0, 110.0), (71.84694323139601, -142.60313094034314), (43.73020708336671, 113.81796683788318), (-65.09665821141937, -227.08245475501613), (-286.6445243404313, 208.1829661055902), (-64.84438967386194, -92.45736882799568), (225.14555631979113, 159.2280308995605), (-96.73688660375043, 221.51552583826856), (292.20950506823067, 129.18167846718057), (-204.84905907258096, -234.14306412720788), (31.075564421636656, -108.68127570837248), (-105.15775031379461, -4.677441478400041), (-137.11880961074309, -59.988818188341526), (64.04340847089668, 175.11717214033075), (149.91252821105473, 78.52051513081952), (-150.52554211625608, -148.99450019654734), (-46.70537392229113, 114.64271543276956), (-79.27177044195378, 101.295838043089), (-155.19533368659953, 64.03716466875636), (-176.0038317270758, 8.757742428045503), (228.17965174588596, -232.38074514070172), (277.1874906741079, -121.83348176066772), (126.21273212997211, 76.59459328547334), (91.47351265149159, 115.82383361870676), (-99.52646511434807, -38.759914064057185), (-82.94056926470296, -61.39525940690231), (102.64130150484206, -25.095582120798667), (100.60649438147266, 1.3466585111610954), (13.515859297207157, 166.13806061658727), (-38.16286974017271, 170.96287997701384)]","[(230.0, -30.0), (-300.0, -20.0), (-130.0, -220.0), (-80.0, 70.0), (120.0, -70.0), (80.0, -220.0), (-100.0, -130.0), (-160.0, 40.0), (90.0, -130.0), (-140.0, 190.0), (-30.0, -220.0), (-50.0, -100.0), (-250.0, -200.0), (190.0, 200.0), (-100.0, 10.0), (-60.0, 110.0), (-20.0, 170.0), (-90.0, -50.0), (-300.0, 140.0), (-140.0, -30.0), (250.0, -180.0), (-180.0, -110.0), (80.0, 160.0), (10.0, -110.0), (100.0, -10.0), (300.0, 90.0), (110.0, 90.0), (170.0, 50.0), (30.0, 110.0)]","[(71.84694323139601, -142.60313094034314), (43.73020708336671, 113.81796683788318), (-65.09665821141937, -227.08245475501613), (-286.6445243404313, 208.1829661055902), (-64.84438967386194, -92.45736882799568), (225.14555631979113, 159.2280308995605), (-96.73688660375043, 221.51552583826856), (292.20950506823067, 129.18167846718057), (-204.84905907258096, -234.14306412720788), (31.075564421636656, -108.68127570837248), (-105.15775031379461, -4.677441478400041), (-137.11880961074309, -59.988818188341526), (64.04340847089668, 175.11717214033075), (149.91252821105473, 78.52051513081952), (-150.52554211625608, -148.99450019654734), (-46.70537392229113, 114.64271543276956), (-79.27177044195378, 101.295838043089), (-155.19533368659953, 64.03716466875636), (-176.0038317270758, 8.757742428045503), (228.17965174588596, -232.38074514070172), (277.1874906741079, -121.83348176066772), (126.21273212997211, 76.59459328547334), (91.47351265149159, 115.82383361870676), (-99.52646511434807, -38.759914064057185), (-82.94056926470296, -61.39525940690231), (102.64130150484206, -25.095582120798667), (100.60649438147266, 1.3466585111610954), (13.515859297207157, 166.13806061658727), (-38.16286974017271, 170.96287997701384)]",0.5,tangential,123.18,1056.15,12.3,17,0.0549,1,,,,,0,0,0,0,,,,,0,9,9,104,,,,,,,,,,,,,,,space,0.6394190997816622,,,,,60,,,,,,,,,,,,,,,,,,,,,,,,,,,1159.3780565997586,None,,,,,,,,,10,20,Male,2021_Dec_15_0822,uniform_mix,2021.2.3,60.00744092344708,
c6_black_ref.xlsx,c6_black_t.xlsx,c6_black.xlsx,stims/black146.png,,146,3273,0.6,54,"[(-170.0, 20.0), (-60.0, 210.0), (130.0, 20.0), (80.0, 80.0), (-100.0, 10.0), (100.0, -20.0), (-90.0, 80.0), (190.0, -170.0), (0.0, -130.0), (-70.0, -210.0), (30.0, 110.0), (-210.0, 140.0), (140.0, -50.0), (-290.0, -170.0), (60.0, -160.0), (-110.0, 140.0), (300.0, -80.0), (-10.0, 140.0), (-130.0, -50.0), (80.0, -90.0), (-280.0, -40.0), (110.0, 210.0), (-140.0, -140.0), (140.0, 110.0), (-80.0, -80.0), (210.0, 10.0), (240.0, 130.0), (-95.49547112177694, -85.55034622529226), (-123.78687927604525, -119.77111996334793), (-171.08606272622512, -175.4641610532999), (-240.99601365655965, -146.27019031344048), (-315.71243692069754, -208.1460922632171), (110.16766986293635, 100.8856783728271), (172.91421145108967, 136.85483038954413), (167.04679540401875, 12.595579795086067), (242.5688743994843, 17.401719472017824), (-114.48748798544136, -44.36616126171149), (-154.80241718185667, -57.6767081443148), (-235.6988383351969, -19.893225704427337), (-318.11629229350683, -49.184755057462766), (87.02165378037068, 190.11067666667216), (110.9523716108657, 244.9320039497939), (252.91487913869955, -88.63773561457232), (334.9652792263929, -104.03180337662283), (-17.5927548921756, 121.56668672421415), (-19.69098462962839, 167.84486636516309), (-87.31729023137493, 130.56940498444578), (-117.70268080040086, 158.42227233633372), (183.66616130193353, 115.95705485059685), (292.8477917493332, 145.51717261671), (54.71883502339586, -132.8649476756582), (64.91365216309228, -191.77687787544667), (65.92925527437839, -81.41528782019111), (85.24013160431127, -103.06379278960561)]","[(-170.0, 20.0), (-60.0, 210.0), (130.0, 20.0), (80.0, 80.0), (-100.0, 10.0), (100.0, -20.0), (-90.0, 80.0), (190.0, -170.0), (0.0, -130.0), (-70.0, -210.0), (30.0, 110.0), (-210.0, 140.0), (140.0, -50.0), (-290.0, -170.0), (60.0, -160.0), (-110.0, 140.0), (300.0, -80.0), (-10.0, 140.0), (-130.0, -50.0), (80.0, -90.0), (-280.0, -40.0), (110.0, 210.0), (-140.0, -140.0), (140.0, 110.0), (-80.0, -80.0), (210.0, 10.0), (240.0, 130.0)]","[(-95.49547112177694, -85.55034622529226), (-123.78687927604525, -119.77111996334793), (-171.08606272622512, -175.4641610532999), (-240.99601365655965, -146.27019031344048), (-315.71243692069754, -208.1460922632171), (110.16766986293635, 100.8856783728271), (172.91421145108967, 136.85483038954413), (167.04679540401875, 12.595579795086067), (242.5688743994843, 17.401719472017824), (-114.48748798544136, -44.36616126171149), (-154.80241718185667, -57.6767081443148), (-235.6988383351969, -19.893225704427337), (-318.11629229350683, -49.184755057462766), (87.02165378037068, 190.11067666667216), (110.9523716108657, 244.9320039497939), (252.91487913869955, -88.63773561457232), (334.9652792263929, -104.03180337662283), (-17.5927548921756, 121.56668672421415), (-19.69098462962839, 167.84486636516309), (-87.31729023137493, 130.56940498444578), (-117.70268080040086, 158.42227233633372), (183.66616130193353, 115.95705485059685), (292.8477917493332, 145.51717261671), (54.71883502339586, -132.8649476756582), (64.91365216309228, -191.77687787544667), (65.92925527437839, -81.41528782019111), (85.24013160431127, -103.06379278960561)]",0,radial,120.77,975.26,12.93,17.67,0.0554,2,,,,,0,0,0,0,,,,,0,10,10,1,,,,,,,,,,,,,,,space,0.7561978003941476,,,,,50,,,,,,,,,,,,,,,,,,,,,,,,,,,1164.0120069999248,None,,,,,,,,,10,20,Male,2021_Dec_15_0822,uniform_mix,2021.2.3,60.00744092344708,
c6_black_ref.xlsx,c6_black_t.xlsx,c6_black.xlsx,stims/black279.png,,279,631,0.6,60,"[(-40.0, -160.0), (-60.0, -90.0), (-260.0, -20.0), (80.0, 60.0), (-140.0, -200.0), (150.0, 100.0), (20.0, -100.0), (-120.0, 40.0), (-280.0, -160.0), (-270.0, 210.0), (100.0, 220.0), (-150.0, -40.0), (170.0, -130.0), (-100.0, -10.0), (250.0, 180.0), (130.0, 30.0), (-70.0, 80.0), (300.0, -220.0), (190.0, 0.0), (100.0, -100.0), (-180.0, 100.0), (-120.0, 190.0), (100.0, -20.0), (60.0, -200.0), (-50.0, 150.0), (280.0, -60.0), (60.0, 130.0), (-10.0, 220.0), (10.0, 110.0), (-120.0, -110.0), (-68.72533104018396, -155.63735296619475), (-77.7459887333383, -83.74575996472343), (-259.39832381660773, 30.24319409941171), (94.81006619388921, 41.39232953834556), (-173.616357512447, -191.7493170501666), (171.92642882460288, 85.28039777902694), (5.554757046137098, -95.23969941006004), (-111.18850414049598, 59.76466025990945), (-316.7892188873926, -135.94451327076308), (-218.48217862674124, 256.1510678226072), (151.5096490872345, 196.06623192240573), (-155.2481687782023, -22.928484287788393), (155.90284024517703, -159.86506020536052), (-107.3049995615563, 0.6043680851443725), (269.17793320577067, 151.55290016128828), (125.05334008391544, 53.00453254363808), (-76.77036353419372, 64.8149803687325), (348.98733279792816, -189.04418136389137), (202.5279071602408, 22.77579709685375), (123.85076368227708, -85.48082035056503), (-203.31486456723354, 58.30285226436382), (-130.97198054875676, 164.91108651871764), (104.10491576816811, -4.077890272944202), (105.65119632179187, -197.36907795578838), (-73.94925731492721, 133.70240362287578), (309.61362477861945, -31.327006931951757), (35.26122079344425, 135.71505871557022), (-37.162775187397756, 236.89452972038507), (-6.9652890061395, 117.9876257729569), (-97.83175131561426, -112.65142252596249)]","[(-40.0, -160.0), (-60.0, -90.0), (-260.0, -20.0), (80.0, 60.0), (-140.0, -200.0), (150.0, 100.0), (20.0, -100.0), (-120.0, 40.0), (-280.0, -160.0), (-270.0, 210.0), (100.0, 220.0), (-150.0, -40.0), (170.0, -130.0), (-100.0, -10.0), (250.0, 180.0), (130.0, 30.0), (-70.0, 80.0), (300.0, -220.0), (190.0, 0.0), (100.0, -100.0), (-180.0, 100.0), (-120.0, 190.0), (100.0, -20.0), (60.0, -200.0), (-50.0, 150.0), (280.0, -60.0), (60.0, 130.0), (-10.0, 220.0), (10.0, 110.0), (-120.0, -110.0)]","[(-68.72533104018396, -155.63735296619475), (-77.7459887333383, -83.74575996472343), (-259.39832381660773, 30.24319409941171), (94.81006619388921, 41.39232953834556), (-173.616357512447, -191.7493170501666), (171.92642882460288, 85.28039777902694), (5.554757046137098, -95.23969941006004), (-111.18850414049598, 59.76466025990945), (-316.7892188873926, -135.94451327076308), (-218.48217862674124, 256.1510678226072), (151.5096490872345, 196.06623192240573), (-155.2481687782023, -22.928484287788393), (155.90284024517703, -159.86506020536052), (-107.3049995615563, 0.6043680851443725), (269.17793320577067, 151.55290016128828), (125.05334008391544, 53.00453254363808), (-76.77036353419372, 64.8149803687325), (348.98733279792816, -189.04418136389137), (202.5279071602408, 22.77579709685375), (123.85076368227708, -85.48082035056503), (-203.31486456723354, 58.30285226436382), (-130.97198054875676, 164.91108651871764), (104.10491576816811, -4.077890272944202), (105.65119632179187, -197.36907795578838), (-73.94925731492721, 133.70240362287578), (309.61362477861945, -31.327006931951757), (35.26122079344425, 135.71505871557022), (-37.162775187397756, 236.89452972038507), (-6.9652890061395, 117.9876257729569), (-97.83175131561426, -112.65142252596249)]",1,tangential,128.68,1090.53,12.69,17.56,0.055,3,,,,,0,0,0,0,,,,,0,11,11,134,,,,,,,,,,,,,,,space,2.066793200094253,,,,,60,,,,,,,,,,,,,,,,,,,,,,,,,,,1185.4829289000481,None,,,,,,,,,10,20,Male,2021_Dec_15_0822,uniform_mix,2021.2.3,60.00744092344708,
c6_black_ref.xlsx,c6_black_t.xlsx,c6_black.xlsx,stims/black189.png,,189,1089,0.6,64,"[(-140.0, 190.0), (90.0, 50.0), (-290.0, 180.0), (0.0, -200.0), (10.0, -100.0), (-100.0, 10.0), (-100.0, 70.0), (200.0, -80.0), (140.0, 30.0), (-120.0, -210.0), (-120.0, -30.0), (20.0, 140.0), (300.0, -30.0), (-160.0, 80.0), (100.0, -30.0), (120.0, 190.0), (120.0, -100.0), (260.0, 200.0), (240.0, 60.0), (180.0, -190.0), (-60.0, -140.0), (-10.0, 210.0), (-180.0, -10.0), (150.0, 110.0), (-270.0, -200.0), (80.0, 100.0), (-210.0, -90.0), (-40.0, 110.0), (50.0, -140.0), (-90.0, -90.0), (70.0, -80.0), (-280.0, 30.0), (169.68485956731806, -161.77854873676375), (123.0241150089775, 14.215243560828318), (108.3151202675284, -83.90993129453754), (217.21433920676282, 41.07350502410171), (29.137182133830603, 121.29776074124818), (-143.88509042371635, -1.7786065608833468), (-72.65758313115873, -69.60552807168686), (114.22189959660193, 90.67553034349186), (-236.70227242419298, -87.83697304785738), (-47.83610110285981, 119.57786722176333), (344.9915747191825, -25.802447688115038), (89.24050966180077, 113.2987973114395), (83.25388846908659, -97.26603397053799), (-187.2280944022453, 101.64525304085508), (122.44078429954348, 227.37743916106066), (-5.109472660988164, 251.33129216607944), (-231.33614116951617, 17.516663023886903), (-314.7780252797789, 28.94114336777072), (87.6254254229376, -31.399292759567892), (112.53081439040369, -38.25555447594579), (222.86076378502398, 166.5628291545618), (278.94941992533575, 237.7336860934198), (-93.12281867691348, -161.87398612367218), (-127.6534579280065, -247.78831920793886), (-229.50750335125434, -166.05393317357522), (-326.5182020414344, -226.09374651914618), (-46.91920944710987, -124.57755916869039), (-67.87425002129548, -165.72099738929026), (46.73280488120681, -124.20711449017347), (59.70867191511087, -156.30308770858952), (-91.88682470042531, -28.57740318509908), (-146.39031059207213, -31.77965011938356)]","[(-140.0, 190.0), (90.0, 50.0), (-290.0, 180.0), (0.0, -200.0), (10.0, -100.0), (-100.0, 10.0), (-100.0, 70.0), (200.0, -80.0), (140.0, 30.0), (-120.0, -210.0), (-120.0, -30.0), (20.0, 140.0), (300.0, -30.0), (-160.0, 80.0), (100.0, -30.0), (120.0, 190.0), (120.0, -100.0), (260.0, 200.0), (240.0, 60.0), (180.0, -190.0), (-60.0, -140.0), (-10.0, 210.0), (-180.0, -10.0), (150.0, 110.0), (-270.0, -200.0), (80.0, 100.0), (-210.0, -90.0), (-40.0, 110.0), (50.0, -140.0), (-90.0, -90.0), (70.0, -80.0), (-280.0, 30.0)]","[(169.68485956731806, -161.77854873676375), (123.0241150089775, 14.215243560828318), (108.3151202675284, -83.90993129453754), (217.21433920676282, 41.07350502410171), (29.137182133830603, 121.29776074124818), (-143.88509042371635, -1.7786065608833468), (-72.65758313115873, -69.60552807168686), (114.22189959660193, 90.67553034349186), (-236.70227242419298, -87.83697304785738), (-47.83610110285981, 119.57786722176333), (344.9915747191825, -25.802447688115038), (89.24050966180077, 113.2987973114395), (83.25388846908659, -97.26603397053799), (-187.2280944022453, 101.64525304085508), (122.44078429954348, 227.37743916106066), (-5.109472660988164, 251.33129216607944), (-231.33614116951617, 17.516663023886903), (-314.7780252797789, 28.94114336777072), (87.6254254229376, -31.399292759567892), (112.53081439040369, -38.25555447594579), (222.86076378502398, 166.5628291545618), (278.94941992533575, 237.7336860934198), (-93.12281867691348, -161.87398612367218), (-127.6534579280065, -247.78831920793886), (-229.50750335125434, -166.05393317357522), (-326.5182020414344, -226.09374651914618), (-46.91920944710987, -124.57755916869039), (-67.87425002129548, -165.72099738929026), (46.73280488120681, -124.20711449017347), (59.70867191511087, -156.30308770858952), (-91.88682470042531, -28.57740318509908), (-146.39031059207213, -31.77965011938356)]",0.5,radial,131.15,1163.27,12.72,17.52,0.055,1,,,,,0,0,0,0,,,,,0,12,12,44,,,,,,,,,,,,,,,space,0.578414199873805,,,,,50,,,,,,,,,,,,,,,,,,,,,,,,,,,1188.8420875999145,None,,,,,,,,,10,20,Male,2021_Dec_15_0822,uniform_mix,2021.2.3,60.00744092344708,
c6_black_ref.xlsx,c6_black_t.xlsx,c6_black.xlsx,stims/black206.png,,206,678,0.6,60,"[(140.0, 220.0), (-40.0, 170.0), (40.0, 130.0), (-240.0, 210.0), (-90.0, -60.0), (30.0, -180.0), (260.0, 50.0), (150.0, 60.0), (-10.0, 100.0), (140.0, -160.0), (-50.0, -150.0), (40.0, -100.0), (110.0, 20.0), (130.0, -30.0), (-290.0, -130.0), (-120.0, 30.0), (-210.0, -50.0), (-130.0, -110.0), (70.0, 90.0), (-140.0, 160.0), (-240.0, 70.0), (-60.0, 110.0), (40.0, 210.0), (-100.0, -10.0), (-20.0, -100.0), (-180.0, -210.0), (270.0, -110.0), (90.0, -70.0), (300.0, 220.0), (-80.0, 70.0), (115.4306165102941, 182.41280809566786), (-47.215727137569075, 145.72484813176627), (28.717882155732248, 116.55349358092509), (-182.26599634653994, 171.05070283949635), (-75.64522760284666, -55.928073023129926), (20.609871096576903, -140.67741059690482), (229.59516336298995, 42.566933830348646), (128.0741449836237, 45.59826565676482), (-7.723045130901765, 88.97473197445761), (114.74796728782896, -120.5059236687751), (-36.42634380420629, -115.36440156334524), (26.1606979584733, -83.53892971684374), (91.49149124707323, 13.963058046031364), (102.90389734958676, -29.47224804084636), (-264.4686600714471, -103.96785915553), (-137.40447256838118, 29.8021427460347), (-260.48001457069654, -66.11931009953594), (-150.55681612375014, -131.87496056330224), (78.3951117019767, 100.53781656472043), (-145.26035557373757, 190.55491753689913), (-270.9162803353236, 65.74890262518392), (-70.16451730125712, 135.03313659183289), (58.01454236838667, 232.6321690630013), (-111.15274550720808, -16.65128701793756), (-25.66644893247366, -116.13433207805643), (-189.97103935169685, -240.74236137494148), (331.015445440139, -140.62162770123706), (109.78421791544915, -76.05841205530169), (332.77023853982115, 241.2704048974689), (-92.13229089617695, 77.1627131346694)]","[(140.0, 220.0), (-40.0, 170.0), (40.0, 130.0), (-240.0, 210.0), (-90.0, -60.0), (30.0, -180.0), (260.0, 50.0), (150.0, 60.0), (-10.0, 100.0), (140.0, -160.0), (-50.0, -150.0), (40.0, -100.0), (110.0, 20.0), (130.0, -30.0), (-290.0, -130.0), (-120.0, 30.0), (-210.0, -50.0), (-130.0, -110.0), (70.0, 90.0), (-140.0, 160.0), (-240.0, 70.0), (-60.0, 110.0), (40.0, 210.0), (-100.0, -10.0), (-20.0, -100.0), (-180.0, -210.0), (270.0, -110.0), (90.0, -70.0), (300.0, 220.0), (-80.0, 70.0)]","[(115.4306165102941, 182.41280809566786), (-47.215727137569075, 145.72484813176627), (28.717882155732248, 116.55349358092509), (-182.26599634653994, 171.05070283949635), (-75.64522760284666, -55.928073023129926), (20.609871096576903, -140.67741059690482), (229.59516336298995, 42.566933830348646), (128.0741449836237, 45.59826565676482), (-7.723045130901765, 88.97473197445761), (114.74796728782896, -120.5059236687751), (-36.42634380420629, -115.36440156334524), (26.1606979584733, -83.53892971684374), (91.49149124707323, 13.963058046031364), (102.90389734958676, -29.47224804084636), (-264.4686600714471, -103.96785915553), (-137.40447256838118, 29.8021427460347), (-260.48001457069654, -66.11931009953594), (-150.55681612375014, -131.87496056330224), (78.3951117019767, 100.53781656472043), (-145.26035557373757, 190.55491753689913), (-270.9162803353236, 65.74890262518392), (-70.16451730125712, 135.03313659183289), (58.01454236838667, 232.6321690630013), (-111.15274550720808, -16.65128701793756), (-25.66644893247366, -116.13433207805643), (-189.97103935169685, -240.74236137494148), (331.015445440139, -140.62162770123706), (109.78421791544915, -76.05841205530169), (332.77023853982115, 241.2704048974689), (-92.13229089617695, 77.1627131346694)]",1,radial,129.56,1081.49,12.04,16.73,0.0555,2,,,,,0,0,0,0,,,,,0,13,13,61,,,,,,,,,,,,,,,space,0.7115158000960946,,,,,60,,,,,,,,,,,,,,,,,,,,,,,,,,,1193.0502543998882,None,,,,,,,,,10,20,Male,2021_Dec_15_0822,uniform_mix,2021.2.3,60.00744092344708,
c6_black_ref.xlsx,c6_black_t.xlsx,c6_black.xlsx,stims/black150.png,,150,2433,0.6,56,"[(-110.0, 60.0), (-190.0, 50.0), (-70.0, -100.0), (-240.0, -30.0), (60.0, -90.0), (280.0, -140.0), (100.0, 30.0), (90.0, 150.0), (0.0, 220.0), (-70.0, 150.0), (40.0, -180.0), (-120.0, -60.0), (10.0, -100.0), (120.0, -190.0), (-250.0, -130.0), (40.0, 110.0), (-70.0, 80.0), (-10.0, 130.0), (-150.0, 220.0), (130.0, 80.0), (220.0, 150.0), (120.0, -90.0), (-290.0, 210.0), (230.0, 0.0), (100.0, -20.0), (-100.0, 0.0), (-160.0, -180.0), (-50.0, -200.0), (-234.57313065789774, 169.1368495706229), (-341.66250971171854, 228.99780655055548), (-131.1595722516629, -156.67751612006532), (-183.12645686474076, -211.08150822085832), (-199.7971431251891, -90.37103196847787), (-269.03266685065705, -167.2026101009411), (207.21081952397338, 113.58621688863845), (242.47079129783864, 181.2619613415507), (-15.597526598577598, 115.77035408249701), (-8.307440886855238, 158.8502504410502), (111.84808197939775, 67.7644112574402), (152.0110136083419, 85.25647008504903), (-64.2317444569976, 69.1013535262191), (-78.27725634173936, 91.66552161788276), (40.275281126850295, 89.623658785869), (34.739749835386505, 124.31211136113669), (101.53016831229745, -70.87981460628394), (126.441037146184, -106.0748862984288), (-75.38257616005055, 1.1790394335392023), (-118.11165773787937, -2.2478753280188286), (82.92337304835074, -20.91589762410007), (121.15884839211296, -23.470642673798856), (-42.83805497178054, -178.97026995310387), (-64.71399314338599, -244.52967737392962), (186.3819103452594, 0.44992296801085985), (252.01275154668863, -19.099516620480927), (-151.5281750318241, 185.43188442566972), (-174.47072327556322, 247.44361267620343)]","[(-110.0, 60.0), (-190.0, 50.0), (-70.0, -100.0), (-240.0, -30.0), (60.0, -90.0), (280.0, -140.0), (100.0, 30.0), (90.0, 150.0), (0.0, 220.0), (-70.0, 150.0), (40.0, -180.0), (-120.0, -60.0), (10.0, -100.0), (120.0, -190.0), (-250.0, -130.0), (40.0, 110.0), (-70.0, 80.0), (-10.0, 130.0), (-150.0, 220.0), (130.0, 80.0), (220.0, 150.0), (120.0, -90.0), (-290.0, 210.0), (230.0, 0.0), (100.0, -20.0), (-100.0, 0.0), (-160.0, -180.0), (-50.0, -200.0)]","[(-234.57313065789774, 169.1368495706229), (-341.66250971171854, 228.99780655055548), (-131.1595722516629, -156.67751612006532), (-183.12645686474076, -211.08150822085832), (-199.7971431251891, -90.37103196847787), (-269.03266685065705, -167.2026101009411), (207.21081952397338, 113.58621688863845), (242.47079129783864, 181.2619613415507), (-15.597526598577598, 115.77035408249701), (-8.307440886855238, 158.8502504410502), (111.84808197939775, 67.7644112574402), (152.0110136083419, 85.25647008504903), (-64.2317444569976, 69.1013535262191), (-78.27725634173936, 91.66552161788276), (40.275281126850295, 89.623658785869), (34.739749835386505, 124.31211136113669), (101.53016831229745, -70.87981460628394), (126.441037146184, -106.0748862984288), (-75.38257616005055, 1.1790394335392023), (-118.11165773787937, -2.2478753280188286), (82.92337304835074, -20.91589762410007), (121.15884839211296, -23.470642673798856), (-42.83805497178054, -178.97026995310387), (-64.71399314338599, -244.52967737392962), (186.3819103452594, 0.44992296801085985), (252.01275154668863, -19.099516620480927), (-151.5281750318241, 185.43188442566972), (-174.47072327556322, 247.44361267620343)]",0,radial,124.11,1017.39,12.29,16.99,0.055,2,,,,,0,0,0,0,,,,,0,14,14,5,,,,,,,,,,,,,,,space,0.6427205000072718,,,,,65,,,,,,,,,,,,,,,,,,,,,,,,,,,1196.1976598999463,None,,,,,,,,,10,20,Male,2021_Dec_15_0822,uniform_mix,2021.2.3,60.00744092344708,
c6_black_ref.xlsx,c6_black_t.xlsx,c6_black.xlsx,stims/black278.png,,278,440,0.6,60,"[(160.0, -30.0), (20.0, 100.0), (-220.0, 140.0), (70.0, -90.0), (-90.0, -110.0), (-150.0, -210.0), (160.0, 180.0), (-50.0, 110.0), (-120.0, 130.0), (270.0, -80.0), (40.0, -170.0), (30.0, 220.0), (240.0, 20.0), (-160.0, -100.0), (-10.0, -130.0), (-120.0, 60.0), (130.0, -200.0), (80.0, 120.0), (-110.0, -40.0), (300.0, -210.0), (150.0, 50.0), (100.0, -30.0), (-260.0, -120.0), (-50.0, 180.0), (-50.0, -200.0), (170.0, -110.0), (-150.0, 0.0), (100.0, 20.0), (-300.0, 50.0), (300.0, 220.0), (162.76044798171785, -58.25954737130459), (30.10262218760731, 95.82485359270697), (-198.14075814138982, 186.62538516041258), (55.42196180779001, -100.90351684028653), (-112.74860013116628, -90.34178016659818), (-189.31953949821383, -185.5034989671084), (176.26364079431883, 158.44522915653928), (-26.673788198225438, 112.41660859802334), (-94.33451064099017, 158.02270850720902), (242.8883719267174, -122.33922406528535), (5.3486225520723, -180.31963006977924), (69.13659615023556, 212.57524189419883), (231.49273581108991, -9.543899466285211), (-179.90977961721512, -82.95474280603739), (-30.685868999850626, -130.7095145411101), (-127.7528841995774, 41.914011118890556), (166.61760557679108, -188.50797322472937), (57.107783168613906, 134.7606818473648), (-101.4466927583564, -55.2887567353263), (332.37752777191247, -167.89088592823447), (146.65619662549182, 69.2998657485602), (104.2907854189348, -19.693032290095857), (-239.27268128301012, -181.06212577956353), (-81.56265448238625, 166.48292030366824), (-19.811656388566036, -192.57136025806042), (194.07002467305227, -79.88925143017349), (-155.9628430579489, -27.31748659640529), (97.15574652908788, 29.84846254652976), (-289.42634387760006, 13.934676408807377), (275.72644336618777, 290.1063307819122)]","[(160.0, -30.0), (20.0, 100.0), (-220.0, 140.0), (70.0, -90.0), (-90.0, -110.0), (-150.0, -210.0), (160.0, 180.0), (-50.0, 110.0), (-120.0, 130.0), (270.0, -80.0), (40.0, -170.0), (30.0, 220.0), (240.0, 20.0), (-160.0, -100.0), (-10.0, -130.0), (-120.0, 60.0), (130.0, -200.0), (80.0, 120.0), (-110.0, -40.0), (300.0, -210.0), (150.0, 50.0), (100.0, -30.0), (-260.0, -120.0), (-50.0, 180.0), (-50.0, -200.0), (170.0, -110.0), (-150.0, 0.0), (100.0, 20.0), (-300.0, 50.0), (300.0, 220.0)]","[(162.76044798171785, -58.25954737130459), (30.10262218760731, 95.82485359270697), (-198.14075814138982, 186.62538516041258), (55.42196180779001, -100.90351684028653), (-112.74860013116628, -90.34178016659818), (-189.31953949821383, -185.5034989671084), (176.26364079431883, 158.44522915653928), (-26.673788198225438, 112.41660859802334), (-94.33451064099017, 158.02270850720902), (242.8883719267174, -122.33922406528535), (5.3486225520723, -180.31963006977924), (69.13659615023556, 212.57524189419883), (231.49273581108991, -9.543899466285211), (-179.90977961721512, -82.95474280603739), (-30.685868999850626, -130.7095145411101), (-127.7528841995774, 41.914011118890556), (166.61760557679108, -188.50797322472937), (57.107783168613906, 134.7606818473648), (-101.4466927583564, -55.2887567353263), (332.37752777191247, -167.89088592823447), (146.65619662549182, 69.2998657485602), (104.2907854189348, -19.693032290095857), (-239.27268128301012, -181.06212577956353), (-81.56265448238625, 166.48292030366824), (-19.811656388566036, -192.57136025806042), (194.07002467305227, -79.88925143017349), (-155.9628430579489, -27.31748659640529), (97.15574652908788, 29.84846254652976), (-289.42634387760006, 13.934676408807377), (275.72644336618777, 290.1063307819122)]",1,tangential,127.94,1090.61,12.94,17.75,0.055,2,,,,,0,0,0,0,,,,,0,15,15,133,,,,,,,,,,,,,,,space,0.4528251001611352,,,,,70,,,,,,,,,,,,,,,,,,,,,,,,,,,1200.6180857000872,None,,,,,,,,,10,20,Male,2021_Dec_15_0822,uniform_mix,2021.2.3,60.00744092344708,
c6_black_ref.xlsx,c6_black_t.xlsx,c6_black.xlsx,stims/black251.png,,251,3663,0.6,58,"[(90.0, -70.0), (30.0, -210.0), (-40.0, -120.0), (150.0, 20.0), (-230.0, -30.0), (60.0, 200.0), (-300.0, 60.0), (-80.0, 130.0), (-300.0, -130.0), (150.0, -120.0), (30.0, -120.0), (130.0, 140.0), (-50.0, 220.0), (-100.0, 10.0), (130.0, -210.0), (240.0, 70.0), (100.0, 0.0), (270.0, 200.0), (0.0, 140.0), (-100.0, -60.0), (300.0, -110.0), (-210.0, 150.0), (-70.0, -220.0), (-140.0, 60.0), (200.0, -40.0), (-80.0, 60.0), (60.0, 110.0), (100.0, 60.0), (-170.0, -120.0), (-117.29302896043134, -207.41224583914052), (255.434350547634, 28.65963910809961), (-167.88644646912059, 182.9971640882335), (83.16169675502749, -246.20194311955316), (92.31395684601151, -14.001310968853048), (-104.40451405894174, -43.48588493573553), (-11.488820940134332, 241.45162824636628), (83.67166214290833, 82.02214499799985), (202.43917816293376, 4.138712817125679), (-151.7089986598586, 31.376710766025226), (171.64850887327526, -84.0126219775554), (-90.57259853918666, 114.8250037171624), (-92.2607410616675, 46.05638175247918), (115.97409781445137, 168.47559949243185), (311.00104660632695, -76.43045339660796), (70.68276557315951, 95.48910014048502), (34.62002077011131, 115.66946815907491), (22.85935124364815, 140.09695378929337), (-22.16296893579141, 141.41639172312054), (-95.95921358291801, 19.71345858174965), (-97.4567177378646, -2.689592198318877), (-196.85906531270092, -104.7847330006698), (-152.9536936947908, -139.08582677153325), (-314.37647172065283, -83.8788063617153), (-287.2113058872351, -194.99597231777514), (9.000794615335707, -119.57424705851643), (53.649425940288126, -118.42695900404165), (285.63278835887644, 147.30461450480735), (219.10080315284787, 250.44857280260916)]","[(90.0, -70.0), (30.0, -210.0), (-40.0, -120.0), (150.0, 20.0), (-230.0, -30.0), (60.0, 200.0), (-300.0, 60.0), (-80.0, 130.0), (-300.0, -130.0), (150.0, -120.0), (30.0, -120.0), (130.0, 140.0), (-50.0, 220.0), (-100.0, 10.0), (130.0, -210.0), (240.0, 70.0), (100.0, 0.0), (270.0, 200.0), (0.0, 140.0), (-100.0, -60.0), (300.0, -110.0), (-210.0, 150.0), (-70.0, -220.0), (-140.0, 60.0), (200.0, -40.0), (-80.0, 60.0), (60.0, 110.0), (100.0, 60.0), (-170.0, -120.0)]","[(-117.29302896043134, -207.41224583914052), (255.434350547634, 28.65963910809961), (-167.88644646912059, 182.9971640882335), (83.16169675502749, -246.20194311955316), (92.31395684601151, -14.001310968853048), (-104.40451405894174, -43.48588493573553), (-11.488820940134332, 241.45162824636628), (83.67166214290833, 82.02214499799985), (202.43917816293376, 4.138712817125679), (-151.7089986598586, 31.376710766025226), (171.64850887327526, -84.0126219775554), (-90.57259853918666, 114.8250037171624), (-92.2607410616675, 46.05638175247918), (115.97409781445137, 168.47559949243185), (311.00104660632695, -76.43045339660796), (70.68276557315951, 95.48910014048502), (34.62002077011131, 115.66946815907491), (22.85935124364815, 140.09695378929337), (-22.16296893579141, 141.41639172312054), (-95.95921358291801, 19.71345858174965), (-97.4567177378646, -2.689592198318877), (-196.85906531270092, -104.7847330006698), (-152.9536936947908, -139.08582677153325), (-314.37647172065283, -83.8788063617153), (-287.2113058872351, -194.99597231777514), (9.000794615335707, -119.57424705851643), (53.649425940288126, -118.42695900404165), (285.63278835887644, 147.30461450480735), (219.10080315284787, 250.44857280260916)]",0.5,tangential,121.37,1055.38,12.62,17.42,0.055,3,,,,,0,0,0,0,,,,,0,16,16,106,,,,,,,,,,,,,,,space,0.6869383002631366,,,,,60,,,,,,,,,,,,,,,,,,,,,,,,,,,1203.278186999727,None,,,,,,,,,10,20,Male,2021_Dec_15_0822,uniform_mix,2021.2.3,60.00744092344708,
c6_black_ref.xlsx,c6_black_t.xlsx,c6_black.xlsx,stims/black258.png,,258,1917,0.6,62,"[(-90.0, -100.0), (150.0, -120.0), (-220.0, -40.0), (-40.0, -110.0), (80.0, 70.0), (230.0, -20.0), (-100.0, -50.0), (-260.0, 100.0), (-170.0, 30.0), (-100.0, 0.0), (270.0, -130.0), (-30.0, -180.0), (40.0, -210.0), (-50.0, 150.0), (-20.0, 100.0), (280.0, 170.0), (50.0, 120.0), (-240.0, 220.0), (160.0, 80.0), (120.0, -60.0), (-90.0, 50.0), (160.0, -220.0), (130.0, 220.0), (-280.0, -210.0), (-120.0, 220.0), (110.0, 20.0), (40.0, -100.0), (-160.0, -170.0), (20.0, 180.0), (80.0, -140.0), (-130.0, 100.0), (68.52793479302846, 121.67870861406769), (49.74723653650642, 171.35934783765117), (107.46383777919146, -82.94882555213346), (271.0871483075584, -180.57876522212226), (-112.90173551921363, 126.1251283533048), (-58.46083829583978, -168.6409702240548), (-194.24287540187666, 266.5037919499042), (176.4381538357696, 191.29141778071295), (-268.51945258601825, 45.68902953696761), (-107.67127429035455, -15.287012107005097), (104.82959664848906, 47.401575585039254), (-167.7574391275623, 3.0787508866964686), (268.2709925944441, 210.69341913429943), (-31.373535536484567, 93.19734960294002), (114.75078962808281, -123.12087841597489), (-149.73069365299656, 209.40245550978918), (-270.2901738602137, -261.18968679201083), (118.74779816286173, -256.6269632341989), (206.86821530124405, -183.96679051885394), (-88.3710778595516, 65.59640881623596), (-104.48152463457919, 37.06135844719542), (27.933100471162447, -111.17593004597626), (55.85153666320704, -90.82777655064962), (-30.902429378578887, 161.60332697450383), (-67.60857277544693, 146.05642979855637), (180.05866644094144, 40.466290414593104), (146.62134556885923, 118.67359563693887), (-176.42470419562102, -148.1810429443537), (-124.45301505478574, -212.8190313497613), (-5.1938954085799764, -218.10497478387165), (90.81176123604706, -201.32805755881185)]","[(-90.0, -100.0), (150.0, -120.0), (-220.0, -40.0), (-40.0, -110.0), (80.0, 70.0), (230.0, -20.0), (-100.0, -50.0), (-260.0, 100.0), (-170.0, 30.0), (-100.0, 0.0), (270.0, -130.0), (-30.0, -180.0), (40.0, -210.0), (-50.0, 150.0), (-20.0, 100.0), (280.0, 170.0), (50.0, 120.0), (-240.0, 220.0), (160.0, 80.0), (120.0, -60.0), (-90.0, 50.0), (160.0, -220.0), (130.0, 220.0), (-280.0, -210.0), (-120.0, 220.0), (110.0, 20.0), (40.0, -100.0), (-160.0, -170.0), (20.0, 180.0), (80.0, -140.0), (-130.0, 100.0)]","[(68.52793479302846, 121.67870861406769), (49.74723653650642, 171.35934783765117), (107.46383777919146, -82.94882555213346), (271.0871483075584, -180.57876522212226), (-112.90173551921363, 126.1251283533048), (-58.46083829583978, -168.6409702240548), (-194.24287540187666, 266.5037919499042), (176.4381538357696, 191.29141778071295), (-268.51945258601825, 45.68902953696761), (-107.67127429035455, -15.287012107005097), (104.82959664848906, 47.401575585039254), (-167.7574391275623, 3.0787508866964686), (268.2709925944441, 210.69341913429943), (-31.373535536484567, 93.19734960294002), (114.75078962808281, -123.12087841597489), (-149.73069365299656, 209.40245550978918), (-270.2901738602137, -261.18968679201083), (118.74779816286173, -256.6269632341989), (206.86821530124405, -183.96679051885394), (-88.3710778595516, 65.59640881623596), (-104.48152463457919, 37.06135844719542), (27.933100471162447, -111.17593004597626), (55.85153666320704, -90.82777655064962), (-30.902429378578887, 161.60332697450383), (-67.60857277544693, 146.05642979855637), (180.05866644094144, 40.466290414593104), (146.62134556885923, 118.67359563693887), (-176.42470419562102, -148.1810429443537), (-124.45301505478574, -212.8190313497613), (-5.1938954085799764, -218.10497478387165), (90.81176123604706, -201.32805755881185)]",0.5,tangential,128.81,1126.26,12.82,17.69,0.055,2,,,,,0,0,0,0,,,,,0,17,17,113,,,,,,,,,,,,,,,space,0.7082782001234591,,,,,55,,,,,,,,,,,,,,,,,,,,,,,,,,,1209.3971392000094,None,,,,,,,,,10,20,Male,2021_Dec_15_0822,uniform_mix,2021.2.3,60.00744092344708,
c6_black_ref.xlsx,c6_black_t.xlsx,c6_black.xlsx,stims/black227.png,,227,2241,0.6,58,"[(130.0, 170.0), (120.0, 80.0), (10.0, 120.0), (120.0, 20.0), (150.0, -80.0), (210.0, 70.0), (300.0, 200.0), (80.0, -110.0), (100.0, -30.0), (-190.0, 50.0), (60.0, 130.0), (-110.0, -70.0), (60.0, 80.0), (-80.0, 210.0), (10.0, 200.0), (0.0, -100.0), (250.0, -80.0), (20.0, -210.0), (-300.0, 170.0), (-270.0, -160.0), (-160.0, -20.0), (-160.0, -130.0), (-60.0, 120.0), (-290.0, 20.0), (-110.0, 30.0), (-170.0, 140.0), (-50.0, -100.0), (-90.0, -220.0), (200.0, -220.0), (49.97390058361481, -221.33460555728902), (165.30425760045603, -226.27145892918304), (257.843463175955, -180.21805452187976), (36.43578116925789, 202.31363171317457), (-21.396389338718876, 203.00122310059962), (-120.58892848448357, -202.71743714152367), (-63.493880512488175, -223.14691727186894), (-13.554941284099186, -107.35014486212165), (12.976626591457588, -99.92111509987058), (-185.0724587024876, -98.36477614962809), (-128.87088311144782, -158.3270647244152), (-103.84003172620692, 43.713753875123444), (-114.58860210258237, 14.773223693456856), (-294.9043386285974, -123.45611673194793), (-231.97070847540712, -216.404432041147), (-60.66995483824783, -91.10844511519034), (-31.70621666198673, -101.39946105120637), (-158.3651610414332, 164.00769998841602), (-184.7326511384171, 104.54559301257507), (246.21984700915462, -119.31073945569733), (245.88877097398912, -38.433511473869174), (-171.1395570769239, 14.851498829843791), (-168.9205185471479, -38.634559313850446), (-251.76431287686273, 199.87836266111492), (-341.40601200135677, 145.7365936928423), (-40.22086746407801, 125.32201164779029), (-79.69375263966776, 106.18449100195602), (-303.69957531189374, 77.79046699249969), (-306.5448713981887, -26.508076218153803)]","[(130.0, 170.0), (120.0, 80.0), (10.0, 120.0), (120.0, 20.0), (150.0, -80.0), (210.0, 70.0), (300.0, 200.0), (80.0, -110.0), (100.0, -30.0), (-190.0, 50.0), (60.0, 130.0), (-110.0, -70.0), (60.0, 80.0), (-80.0, 210.0), (10.0, 200.0), (0.0, -100.0), (250.0, -80.0), (20.0, -210.0), (-300.0, 170.0), (-270.0, -160.0), (-160.0, -20.0), (-160.0, -130.0), (-60.0, 120.0), (-290.0, 20.0), (-110.0, 30.0), (-170.0, 140.0), (-50.0, -100.0), (-90.0, -220.0), (200.0, -220.0)]","[(49.97390058361481, -221.33460555728902), (165.30425760045603, -226.27145892918304), (257.843463175955, -180.21805452187976), (36.43578116925789, 202.31363171317457), (-21.396389338718876, 203.00122310059962), (-120.58892848448357, -202.71743714152367), (-63.493880512488175, -223.14691727186894), (-13.554941284099186, -107.35014486212165), (12.976626591457588, -99.92111509987058), (-185.0724587024876, -98.36477614962809), (-128.87088311144782, -158.3270647244152), (-103.84003172620692, 43.713753875123444), (-114.58860210258237, 14.773223693456856), (-294.9043386285974, -123.45611673194793), (-231.97070847540712, -216.404432041147), (-60.66995483824783, -91.10844511519034), (-31.70621666198673, -101.39946105120637), (-158.3651610414332, 164.00769998841602), (-184.7326511384171, 104.54559301257507), (246.21984700915462, -119.31073945569733), (245.88877097398912, -38.433511473869174), (-171.1395570769239, 14.851498829843791), (-168.9205185471479, -38.634559313850446), (-251.76431287686273, 199.87836266111492), (-341.40601200135677, 145.7365936928423), (-40.22086746407801, 125.32201164779029), (-79.69375263966776, 106.18449100195602), (-303.69957531189374, 77.79046699249969), (-306.5448713981887, -26.508076218153803)]",0,tangential,126.16,1054.09,13.41,18.05,0.055,3,,,,,0,0,0,0,,,,,0,18,18,82,,,,,,,,,,,,,,,space,0.5843468001112342,,,,,54,,,,,,,,,,,,,,,,,,,,,,,,,,,1211.8850903999992,None,,,,,,,,,10,20,Male,2021_Dec_15_0822,uniform_mix,2021.2.3,60.00744092344708,
c6_black_ref.xlsx,c6_black_t.xlsx,c6_black.xlsx,stims/black248.png,,248,3223,0.6,56,"[(260.0, 150.0), (230.0, -180.0), (-70.0, -80.0), (-20.0, 130.0), (-160.0, -160.0), (-100.0, -20.0), (-170.0, 130.0), (140.0, -70.0), (-120.0, 30.0), (0.0, -130.0), (70.0, -80.0), (100.0, -30.0), (-300.0, -130.0), (-170.0, -60.0), (40.0, -210.0), (-240.0, 30.0), (30.0, 100.0), (-70.0, 80.0), (150.0, 160.0), (-300.0, 220.0), (-110.0, 210.0), (280.0, -40.0), (110.0, 90.0), (110.0, -140.0), (-50.0, -170.0), (200.0, 40.0), (40.0, 220.0), (110.0, 20.0), (126.2695537015883, 75.40122132716665), (134.64681269197592, -85.02216348150134), (115.83811190177548, 5.384129892603994), (80.39720403816163, -157.48636464020768), (272.93105951280694, -79.1650094978184), (-90.9986077086061, 224.7227809584051), (67.0632142920145, 210.26408909964664), (-147.94017734702265, -79.48161443364893), (-240.90370660152362, -16.35585598304141), (-356.2370782036687, 184.91156359307024), (14.103251604210243, -137.92312724575336), (199.8233320227058, 73.65372905632987), (67.95885489108468, -213.81471702258534), (-19.999744060207377, -175.16044282489048), (45.03543167722728, 96.21714001785455), (12.432121815134636, 105.6308575078693), (-123.04660783154425, 46.95516547906601), (-125.74151936202148, 5.823688686569909), (-65.84855015837326, 92.75161237242509), (-74.4504023381129, 66.93076312516789), (53.19231091716503, -90.79673399426942), (83.7705811573256, -76.42126535169112), (163.35143459556147, 140.0602840843147), (111.82411167716903, 177.67695642431218), (98.65639050241988, -51.1813691536378), (111.55553963748241, -22.882756785768123), (-292.87774722458164, -90.73002388541596), (-284.15482187671654, -184.13304664486236)]","[(260.0, 150.0), (230.0, -180.0), (-70.0, -80.0), (-20.0, 130.0), (-160.0, -160.0), (-100.0, -20.0), (-170.0, 130.0), (140.0, -70.0), (-120.0, 30.0), (0.0, -130.0), (70.0, -80.0), (100.0, -30.0), (-300.0, -130.0), (-170.0, -60.0), (40.0, -210.0), (-240.0, 30.0), (30.0, 100.0), (-70.0, 80.0), (150.0, 160.0), (-300.0, 220.0), (-110.0, 210.0), (280.0, -40.0), (110.0, 90.0), (110.0, -140.0), (-50.0, -170.0), (200.0, 40.0), (40.0, 220.0), (110.0, 20.0)]","[(126.2695537015883, 75.40122132716665), (134.64681269197592, -85.02216348150134), (115.83811190177548, 5.384129892603994), (80.39720403816163, -157.48636464020768), (272.93105951280694, -79.1650094978184), (-90.9986077086061, 224.7227809584051), (67.0632142920145, 210.26408909964664), (-147.94017734702265, -79.48161443364893), (-240.90370660152362, -16.35585598304141), (-356.2370782036687, 184.91156359307024), (14.103251604210243, -137.92312724575336), (199.8233320227058, 73.65372905632987), (67.95885489108468, -213.81471702258534), (-19.999744060207377, -175.16044282489048), (45.03543167722728, 96.21714001785455), (12.432121815134636, 105.6308575078693), (-123.04660783154425, 46.95516547906601), (-125.74151936202148, 5.823688686569909), (-65.84855015837326, 92.75161237242509), (-74.4504023381129, 66.93076312516789), (53.19231091716503, -90.79673399426942), (83.7705811573256, -76.42126535169112), (163.35143459556147, 140.0602840843147), (111.82411167716903, 177.67695642431218), (98.65639050241988, -51.1813691536378), (111.55553963748241, -22.882756785768123), (-292.87774722458164, -90.73002388541596), (-284.15482187671654, -184.13304664486236)]",0.5,tangential,122.57,1018.02,12.18,16.85,0.055,4,,,,,0,0,0,0,,,,,0,19,19,103,,,,,,,,,,,,,,,space,0.4635545997880399,,,,,60,,,,,,,,,,,,,,,,,,,,,,,,,,,1216.124805400148,None,,,,,,,,,10,20,Male,2021_Dec_15_0822,uniform_mix,2021.2.3,60.00744092344708,
c6_black_ref.xlsx,c6_black_t.xlsx,c6_black.xlsx,stims/black218.png,,218,3836,0.6,54,"[(160.0, 150.0), (-220.0, -190.0), (160.0, 60.0), (-50.0, -90.0), (300.0, -190.0), (110.0, -150.0), (230.0, -70.0), (0.0, 110.0), (90.0, 80.0), (20.0, 210.0), (270.0, 140.0), (120.0, -50.0), (110.0, 10.0), (-90.0, -170.0), (-110.0, -20.0), (-300.0, 70.0), (-120.0, -90.0), (-210.0, 210.0), (-60.0, 80.0), (-230.0, -70.0), (-120.0, 70.0), (50.0, -220.0), (-70.0, 140.0), (70.0, 150.0), (-180.0, 20.0), (50.0, -90.0), (-10.0, -120.0), (-61.355140760495374, -169.57708652830024), (-57.91520126630866, 92.91963611277232), (-74.44042489999639, 69.50818315715534), (-297.4990405310801, 133.70946663937426), (-329.95791221593106, 39.634934189364856), (-112.89189105917043, -0.3562897611558924), (-103.50776930642188, -41.779200566845745), (20.548926654770867, -212.37698068824108), (71.11237733791933, -195.65446514473064), (96.51739246611095, 144.45251783110865), (47.299803974934434, 162.82424487100707), (-177.93974714970915, 63.57238491593287), (-191.9960846596864, -0.10638238018748325), (-109.34115345738746, 94.66084210356169), (-127.48604651045584, 57.29953219653926), (-164.62003289469956, 260.64309096698474), (-255.35612142194327, 194.9661657497218), (-24.91596093580671, -121.028811945354), (6.182728152275729, -120.14488790401684), (-50.32652975461781, 151.01528272145254), (-90.56812705647667, 124.45686306714634), (-230.6015841836647, -37.62370911545281), (-211.15459903557675, -112.8194303704118), (-141.09167190586737, -70.36011150368297), (-107.2691870836406, -115.57308847935448), (39.21923862607804, -102.1890133486188), (64.5461069164417, -90.70363009855225)]","[(160.0, 150.0), (-220.0, -190.0), (160.0, 60.0), (-50.0, -90.0), (300.0, -190.0), (110.0, -150.0), (230.0, -70.0), (0.0, 110.0), (90.0, 80.0), (20.0, 210.0), (270.0, 140.0), (120.0, -50.0), (110.0, 10.0), (-90.0, -170.0), (-110.0, -20.0), (-300.0, 70.0), (-120.0, -90.0), (-210.0, 210.0), (-60.0, 80.0), (-230.0, -70.0), (-120.0, 70.0), (50.0, -220.0), (-70.0, 140.0), (70.0, 150.0), (-180.0, 20.0), (50.0, -90.0), (-10.0, -120.0)]","[(-61.355140760495374, -169.57708652830024), (-57.91520126630866, 92.91963611277232), (-74.44042489999639, 69.50818315715534), (-297.4990405310801, 133.70946663937426), (-329.95791221593106, 39.634934189364856), (-112.89189105917043, -0.3562897611558924), (-103.50776930642188, -41.779200566845745), (20.548926654770867, -212.37698068824108), (71.11237733791933, -195.65446514473064), (96.51739246611095, 144.45251783110865), (47.299803974934434, 162.82424487100707), (-177.93974714970915, 63.57238491593287), (-191.9960846596864, -0.10638238018748325), (-109.34115345738746, 94.66084210356169), (-127.48604651045584, 57.29953219653926), (-164.62003289469956, 260.64309096698474), (-255.35612142194327, 194.9661657497218), (-24.91596093580671, -121.028811945354), (6.182728152275729, -120.14488790401684), (-50.32652975461781, 151.01528272145254), (-90.56812705647667, 124.45686306714634), (-230.6015841836647, -37.62370911545281), (-211.15459903557675, -112.8194303704118), (-141.09167190586737, -70.36011150368297), (-107.2691870836406, -115.57308847935448), (39.21923862607804, -102.1890133486188), (64.5461069164417, -90.70363009855225)]",0,tangential,120.83,992.47,12.05,16.06,0.0544,2,,,,,0,0,0,0,,,,,0,20,20,73,,,,,,,,,,,,,,,space,0.5631880997680128,,,,,53,,,,,,,,,,,,,,,,,,,,,,,,,,,1223.823167100083,None,,,,,,,,,10,20,Male,2021_Dec_15_0822,uniform_mix,2021.2.3,60.00744092344708,
c6_black_ref.xlsx,c6_black_t.xlsx,c6_black.xlsx,stims/black266.png,,266,374,0.6,54,"[(-110.0, 50.0), (-160.0, -80.0), (220.0, -200.0), (-220.0, -10.0), (100.0, 80.0), (-70.0, 80.0), (150.0, 150.0), (-240.0, 110.0), (-290.0, -170.0), (100.0, -90.0), (300.0, 100.0), (-20.0, -120.0), (50.0, -90.0), (-20.0, 150.0), (-100.0, 0.0), (70.0, 220.0), (-170.0, -200.0), (230.0, -80.0), (80.0, -160.0), (100.0, 20.0), (-70.0, -190.0), (-90.0, -70.0), (-220.0, 220.0), (-100.0, 150.0), (130.0, -20.0), (30.0, 110.0), (180.0, 40.0), (-98.3018246760769, 73.01340232064263), (-177.06703145310289, -45.54631261370481), (190.69768560616285, -237.23992532408096), (-222.1221262068845, 37.286473527334664), (108.60038110444304, 61.68053590240051), (-58.7813145368179, 88.34987755321946), (170.31164041606647, 134.8516409518466), (-207.0424121873807, 160.0684246377145), (-295.6729105185061, -117.8147459581048), (90.18814577931434, -110.21159746432438), (303.8952175624855, 37.66726043984062), (-38.807176187642796, -112.84873631796025), (42.922973824717474, -102.76134621995881), (-49.95315896984745, 139.5088723450004), (-105.66946545778656, -9.784544927088291), (34.29479905166039, 228.55926710110109), (-127.21231459199441, -221.84126937452453), (229.86556422626268, -36.870803781383074), (92.08961361342816, -144.4995957260885), (91.20357132275524, 29.44252601784298), (-36.737331265071646, -214.7030250005975), (-80.98327299456918, -84.43431747569642), (-257.62392118995933, 179.37340725556774), (-118.29489448105733, 132.52497965138951), (134.07207602923842, -4.2119300093258545), (16.498359128491757, 107.45244527614278), (169.16376527371048, 76.58882556821791)]","[(-110.0, 50.0), (-160.0, -80.0), (220.0, -200.0), (-220.0, -10.0), (100.0, 80.0), (-70.0, 80.0), (150.0, 150.0), (-240.0, 110.0), (-290.0, -170.0), (100.0, -90.0), (300.0, 100.0), (-20.0, -120.0), (50.0, -90.0), (-20.0, 150.0), (-100.0, 0.0), (70.0, 220.0), (-170.0, -200.0), (230.0, -80.0), (80.0, -160.0), (100.0, 20.0), (-70.0, -190.0), (-90.0, -70.0), (-220.0, 220.0), (-100.0, 150.0), (130.0, -20.0), (30.0, 110.0), (180.0, 40.0)]","[(-98.3018246760769, 73.01340232064263), (-177.06703145310289, -45.54631261370481), (190.69768560616285, -237.23992532408096), (-222.1221262068845, 37.286473527334664), (108.60038110444304, 61.68053590240051), (-58.7813145368179, 88.34987755321946), (170.31164041606647, 134.8516409518466), (-207.0424121873807, 160.0684246377145), (-295.6729105185061, -117.8147459581048), (90.18814577931434, -110.21159746432438), (303.8952175624855, 37.66726043984062), (-38.807176187642796, -112.84873631796025), (42.922973824717474, -102.76134621995881), (-49.95315896984745, 139.5088723450004), (-105.66946545778656, -9.784544927088291), (34.29479905166039, 228.55926710110109), (-127.21231459199441, -221.84126937452453), (229.86556422626268, -36.870803781383074), (92.08961361342816, -144.4995957260885), (91.20357132275524, 29.44252601784298), (-36.737331265071646, -214.7030250005975), (-80.98327299456918, -84.43431747569642), (-257.62392118995933, 179.37340725556774), (-118.29489448105733, 132.52497965138951), (134.07207602923842, -4.2119300093258545), (16.498359128491757, 107.45244527614278), (169.16376527371048, 76.58882556821791)]",1,tangential,118.39,983.78,12.22,16.88,0.0549,2,,,,,0,0,0,0,,,,,0,21,21,121,,,,,,,,,,,,,,,space,0.5782888997346163,,,,,58,,,,,,,,,,,,,,,,,,,,,,,,,,,1227.5011460999958,None,,,,,,,,,10,20,Male,2021_Dec_15_0822,uniform_mix,2021.2.3,60.00744092344708,
c6_black_ref.xlsx,c6_black_t.xlsx,c6_black.xlsx,stims/black148.png,,148,1069,0.6,54,"[(-160.0, 120.0), (-80.0, -60.0), (130.0, 80.0), (-170.0, -60.0), (-50.0, 120.0), (80.0, 210.0), (-100.0, -110.0), (250.0, 140.0), (-170.0, 220.0), (100.0, -180.0), (-290.0, 110.0), (0.0, -200.0), (240.0, -160.0), (-60.0, 200.0), (30.0, -130.0), (100.0, 0.0), (80.0, -70.0), (130.0, -50.0), (-90.0, -210.0), (10.0, 100.0), (-110.0, -20.0), (-30.0, -110.0), (-110.0, 60.0), (-270.0, -190.0), (70.0, 90.0), (220.0, 20.0), (-220.0, 20.0), (72.64008322548675, 104.44123374111108), (104.77560310678078, -33.51188900028255), (144.95962903845248, -53.06367113626307), (88.28002130724187, -3.3167992177323775), (112.25825425731435, -4.532298276977828), (-91.70143323439785, -25.24334920915033), (-129.36133207424677, -28.315027014354225), (-95.64427869772831, 46.82205389521766), (-133.20394141460912, 63.38620736215648), (-62.390142920405815, -176.19334550518957), (-97.99640245151278, -246.3016652163612), (-26.917724484147147, -93.40912979354445), (-29.497663937048205, -128.10047743458492), (22.75418785286078, -107.86668105157722), (41.51053157847365, -159.28930971460275), (-233.49773652435056, -163.56184797533646), (-322.4137105758403, -233.90282836180114), (-54.17179005430691, 164.314312373398), (-61.025530488827876, 234.0680945864742), (-199.11408616109424, -1.941642828519473), (-263.3322937962071, 20.21255155356509), (74.57578947847638, -58.58273250893836), (97.13568744609074, -86.07015401455078), (9.7734732249496, 84.9352374575788), (3.5150420662961572, 110.75625070537625), (191.01826006838783, 2.071313231170369), (243.40785496865718, 28.392877332139264)]","[(-160.0, 120.0), (-80.0, -60.0), (130.0, 80.0), (-170.0, -60.0), (-50.0, 120.0), (80.0, 210.0), (-100.0, -110.0), (250.0, 140.0), (-170.0, 220.0), (100.0, -180.0), (-290.0, 110.0), (0.0, -200.0), (240.0, -160.0), (-60.0, 200.0), (30.0, -130.0), (100.0, 0.0), (80.0, -70.0), (130.0, -50.0), (-90.0, -210.0), (10.0, 100.0), (-110.0, -20.0), (-30.0, -110.0), (-110.0, 60.0), (-270.0, -190.0), (70.0, 90.0), (220.0, 20.0), (-220.0, 20.0)]","[(72.64008322548675, 104.44123374111108), (104.77560310678078, -33.51188900028255), (144.95962903845248, -53.06367113626307), (88.28002130724187, -3.3167992177323775), (112.25825425731435, -4.532298276977828), (-91.70143323439785, -25.24334920915033), (-129.36133207424677, -28.315027014354225), (-95.64427869772831, 46.82205389521766), (-133.20394141460912, 63.38620736215648), (-62.390142920405815, -176.19334550518957), (-97.99640245151278, -246.3016652163612), (-26.917724484147147, -93.40912979354445), (-29.497663937048205, -128.10047743458492), (22.75418785286078, -107.86668105157722), (41.51053157847365, -159.28930971460275), (-233.49773652435056, -163.56184797533646), (-322.4137105758403, -233.90282836180114), (-54.17179005430691, 164.314312373398), (-61.025530488827876, 234.0680945864742), (-199.11408616109424, -1.941642828519473), (-263.3322937962071, 20.21255155356509), (74.57578947847638, -58.58273250893836), (97.13568744609074, -86.07015401455078), (9.7734732249496, 84.9352374575788), (3.5150420662961572, 110.75625070537625), (191.01826006838783, 2.071313231170369), (243.40785496865718, 28.392877332139264)]",0,radial,119.03,969.01,11.4,15.72,0.0557,4,,,,,0,0,0,0,,,,,0,22,22,3,,,,,,,,,,,,,,,space,0.588139200117439,,,,,54,,,,,,,,,,,,,,,,,,,,,,,,,,,1230.3786526997574,None,,,,,,,,,10,20,Male,2021_Dec_15_0822,uniform_mix,2021.2.3,60.00744092344708,
c6_black_ref.xlsx,c6_black_t.xlsx,c6_black.xlsx,stims/blacksub12.png,,12,None,0.6,2,"[(150.0, 110.0), (-60.0, -120.0)]",None,None,None,None,None,None,None,None,None,None,,,,,0,0,0,0,,,,,0,23,23,146,,,,,,,,,,,,,,,space,1.9872008999809623,,,,,2,,,,,,,,,,,,,,,,,,,,,,,,,,,1234.9103633998893,None,,,,,,,,,10,20,Male,2021_Dec_15_0822,uniform_mix,2021.2.3,60.00744092344708,
c6_black_ref.xlsx,c6_black_t.xlsx,c6_black.xlsx,stims/black219.png,,219,2285,0.6,54,"[(-180.0, -130.0), (120.0, 30.0), (-110.0, 60.0), (150.0, -30.0), (10.0, -100.0), (140.0, -130.0), (40.0, 110.0), (-90.0, -90.0), (40.0, -220.0), (-280.0, -90.0), (90.0, -50.0), (-90.0, 130.0), (-80.0, 210.0), (0.0, 160.0), (230.0, 60.0), (-110.0, -10.0), (-160.0, 10.0), (110.0, 100.0), (70.0, -110.0), (270.0, -210.0), (220.0, 190.0), (230.0, -70.0), (-30.0, -140.0), (-260.0, 140.0), (110.0, 200.0), (-70.0, -220.0), (-20.0, 100.0), (-15.802192640331981, -152.62964418104315), (-220.581141026597, 191.2243975258493), (-288.5908779414874, 121.73461237610866), (-117.32217367636895, 8.277098965608815), (-115.96532410730157, -23.412244618606692), (260.379447133374, -257.7191765408244), (302.69968784223585, -190.37363888991462), (61.84888092082056, -127.59769863854152), (88.5298671487445, -104.80475472374724), (237.79130368409113, 32.31165853125921), (212.82778566796088, 92.0134197182727), (224.37363785000522, -108.81136865263355), (233.92147523805428, -42.46280235586539), (113.0143977321913, 78.07503809518337), (84.20847838384117, 123.00787289195831), (-172.8444610174669, 29.108413412672547), (-173.73677057340478, -11.885711587573041), (0.6427433237007705, 107.13765081215314), (-32.66508198093777, 91.36826345280014), (33.70530629739507, 161.37096487975768), (-27.062787810431246, 158.51814741729888), (-91.94578464912837, -199.18382362639326), (-27.787649133488628, -225.99099347188917), (152.43080592098022, 179.40537140137207), (80.41663182520554, 230.45561163298453), (250.38722527654318, 137.8600980805855), (173.36356080736297, 219.55738775138641)]","[(-180.0, -130.0), (120.0, 30.0), (-110.0, 60.0), (150.0, -30.0), (10.0, -100.0), (140.0, -130.0), (40.0, 110.0), (-90.0, -90.0), (40.0, -220.0), (-280.0, -90.0), (90.0, -50.0), (-90.0, 130.0), (-80.0, 210.0), (0.0, 160.0), (230.0, 60.0), (-110.0, -10.0), (-160.0, 10.0), (110.0, 100.0), (70.0, -110.0), (270.0, -210.0), (220.0, 190.0), (230.0, -70.0), (-30.0, -140.0), (-260.0, 140.0), (110.0, 200.0), (-70.0, -220.0), (-20.0, 100.0)]","[(-15.802192640331981, -152.62964418104315), (-220.581141026597, 191.2243975258493), (-288.5908779414874, 121.73461237610866), (-117.32217367636895, 8.277098965608815), (-115.96532410730157, -23.412244618606692), (260.379447133374, -257.7191765408244), (302.69968784223585, -190.37363888991462), (61.84888092082056, -127.59769863854152), (88.5298671487445, -104.80475472374724), (237.79130368409113, 32.31165853125921), (212.82778566796088, 92.0134197182727), (224.37363785000522, -108.81136865263355), (233.92147523805428, -42.46280235586539), (113.0143977321913, 78.07503809518337), (84.20847838384117, 123.00787289195831), (-172.8444610174669, 29.108413412672547), (-173.73677057340478, -11.885711587573041), (0.6427433237007705, 107.13765081215314), (-32.66508198093777, 91.36826345280014), (33.70530629739507, 161.37096487975768), (-27.062787810431246, 158.51814741729888), (-91.94578464912837, -199.18382362639326), (-27.787649133488628, -225.99099347188917), (152.43080592098022, 179.40537140137207), (80.41663182520554, 230.45561163298453), (250.38722527654318, 137.8600980805855), (173.36356080736297, 219.55738775138641)]",0,tangential,118.67,981.88,12.84,17.48,0.055,3,,,,,0,0,0,0,,,,,0,24,24,74,,,,,,,,,,,,,,,space,1.231096999719739,,,,,57,,,,,,,,,,,,,,,,,,,,,,,,,,,1238.106609299779,None,,,,,,,,,10,20,Male,2021_Dec_15_0822,uniform_mix,2021.2.3,60.00744092344708,
c6_black_ref.xlsx,c6_black_t.xlsx,c6_black.xlsx,stims/black252.png,,252,4869,0.6,58,"[(-160.0, 100.0), (150.0, -30.0), (-80.0, 130.0), (-10.0, 130.0), (-80.0, -80.0), (-290.0, -60.0), (0.0, -140.0), (290.0, 10.0), (-80.0, 70.0), (270.0, 180.0), (-140.0, -40.0), (-40.0, 210.0), (100.0, 20.0), (-200.0, 0.0), (-80.0, -210.0), (160.0, 60.0), (-270.0, 160.0), (-200.0, -130.0), (70.0, 200.0), (110.0, -220.0), (50.0, -110.0), (90.0, -60.0), (300.0, -200.0), (-120.0, 20.0), (220.0, -100.0), (-160.0, 200.0), (130.0, -130.0), (70.0, 100.0), (160.0, 140.0), (100.78048671631086, 2.3390364811789937), (102.41107714652424, 177.69455260792807), (-13.932386860304348, 213.67869446243822), (191.64822863301367, 107.32347079821058), (-138.5143739664783, 228.64207135567224), (-140.35041980136936, -15.308918281561063), (-112.40197598732567, 45.30844288393179), (145.1862831499593, 83.45542533829689), (-197.57127747113753, -32.8874204617739), (325.60806046572884, -161.066654863885), (-97.5117402899424, 54.02529845843266), (-194.52159066860713, -169.65632872306242), (-49.42693771154168, -216.64701630432307), (52.78859199941117, 115.85882244797263), (243.1953753213929, 237.39557947062835), (312.1660591088228, -25.637622957158044), (283.0946289067684, 60.88252794649978), (85.21008770170465, -225.35058031810868), (150.91450279815186, -188.13667614099313), (205.97667681207798, -128.19744587139016), (231.83826868038315, -66.60831736006028), (-235.29492365411048, 208.51495832377321), (-292.02040430680063, 121.75798348819558), (28.2380969576285, -117.74203330541215), (70.34777501130705, -98.15586298452394), (82.2940009337257, -81.65858143562609), (95.97274487470136, -48.79581547541213), (110.50134935463441, -153.09990815551078), (149.66053671038338, -98.03646619170236)]","[(-160.0, 100.0), (150.0, -30.0), (-80.0, 130.0), (-10.0, 130.0), (-80.0, -80.0), (-290.0, -60.0), (0.0, -140.0), (290.0, 10.0), (-80.0, 70.0), (270.0, 180.0), (-140.0, -40.0), (-40.0, 210.0), (100.0, 20.0), (-200.0, 0.0), (-80.0, -210.0), (160.0, 60.0), (-270.0, 160.0), (-200.0, -130.0), (70.0, 200.0), (110.0, -220.0), (50.0, -110.0), (90.0, -60.0), (300.0, -200.0), (-120.0, 20.0), (220.0, -100.0), (-160.0, 200.0), (130.0, -130.0), (70.0, 100.0), (160.0, 140.0)]","[(100.78048671631086, 2.3390364811789937), (102.41107714652424, 177.69455260792807), (-13.932386860304348, 213.67869446243822), (191.64822863301367, 107.32347079821058), (-138.5143739664783, 228.64207135567224), (-140.35041980136936, -15.308918281561063), (-112.40197598732567, 45.30844288393179), (145.1862831499593, 83.45542533829689), (-197.57127747113753, -32.8874204617739), (325.60806046572884, -161.066654863885), (-97.5117402899424, 54.02529845843266), (-194.52159066860713, -169.65632872306242), (-49.42693771154168, -216.64701630432307), (52.78859199941117, 115.85882244797263), (243.1953753213929, 237.39557947062835), (312.1660591088228, -25.637622957158044), (283.0946289067684, 60.88252794649978), (85.21008770170465, -225.35058031810868), (150.91450279815186, -188.13667614099313), (205.97667681207798, -128.19744587139016), (231.83826868038315, -66.60831736006028), (-235.29492365411048, 208.51495832377321), (-292.02040430680063, 121.75798348819558), (28.2380969576285, -117.74203330541215), (70.34777501130705, -98.15586298452394), (82.2940009337257, -81.65858143562609), (95.97274487470136, -48.79581547541213), (110.50134935463441, -153.09990815551078), (149.66053671038338, -98.03646619170236)]",0.5,tangential,122.48,1055.39,13.29,18.05,0.055,4,,,,,0,0,0,0,,,,,0,25,25,107,,,,,,,,,,,,,,,space,0.5523953000083566,,,,,59,,,,,,,,,,,,,,,,,,,,,,,,,,,1246.4517626999877,None,,,,,,,,,10,20,Male,2021_Dec_15_0822,uniform_mix,2021.2.3,60.00744092344708,
