reference,test_blockOrder,blockOrder,imageFile,num,index,n,winsize,numerosity,allposis,centralposis,extraposis,perceptpairs,protectzonetype,convexhull,occupancyarea,averageeccentricity,averagespacing,density,display_i,p_trials.thisRepN,p_trials.thisTrialN,p_trials.thisN,p_trials.thisIndex,blocks.thisRepN,blocks.thisTrialN,blocks.thisN,blocks.thisIndex,trials_2.thisRepN,trials_2.thisTrialN,trials_2.thisN,trials_2.thisIndex,trials.thisRepN,trials.thisTrialN,trials.thisN,trials.thisIndex,key_resp.keys,key_resp.rt,key_resp_14.keys,key_resp_14.rt,key_resp_15.keys,key_resp_15.rt,key_resp_16.keys,key_resp_16.rt,key_resp_17.keys,key_resp_17.rt,key_resp_18.keys,key_resp_18.rt,key_resp_19.keys,key_resp_19.rt,key_resp_26.keys,key_resp_26.rt,p_img.started,p_img.stopped,text_14.started,text_14.stopped,responseN,key_resp_4.keys,key_resp_4.rt,text_20.started,text_20.stopped,key_resp_20.keys,key_resp_20.rt,key_resp_20.started,key_resp_20.stopped,key_resp_22.keys,key_resp_22.rt,key_resp_5.keys,key_resp_5.rt,image_2.started,image_2.stopped,blank.started,blank.stopped,text_21.started,text_21.stopped,key_resp_7.keys,key_resp_7.rt,key_resp_7.started,key_resp_7.stopped,key_resp_8.keys,key_resp_8.rt,key_resp_23.keys,key_resp_23.rt,image.started,image.stopped,text_31.started,text_31.stopped,text_32.started,text_32.stopped,key_resp_2.keys,key_resp_2.rt,thanksm.started,thanksm.stopped,participant,age,sex,date,expName,psychopyVersion,frameRate,
,,,,,,,,,,,,,,,,,,,,,,,,,,,,,,,,,,,,space,30.781511900015175,,,,,,,,,,,,,,,,,,,,,,,,,,,,,,,,,,,,,,,,,,,,,,,,,,,,,,,,11,19,Prefer not to say,2021_Dec_15_1015,uniform_mix,2021.2.3,60.50020348930023,
,,,,,,,,,,,,,,,,,,,,,,,,,,,,,,,,,,,,,,space,43.024760799948126,,,,,,,,,,,,,,,,,,,,,,,,,,,,,,,,,,,,,,,,,,,,,,,,,,,,,,11,19,Prefer not to say,2021_Dec_15_1015,uniform_mix,2021.2.3,60.50020348930023,
,,,,,,,,,,,,,,,,,,,,,,,,,,,,,,,,,,,,,,,,space,0.8640382997691631,,,,,,,,,,,,,,,,,,,,,,,,,,,,,,,,,,,,,,,,,,,,,,,,,,,,11,19,Prefer not to say,2021_Dec_15_1015,uniform_mix,2021.2.3,60.50020348930023,
,,,,,,,,,,,,,,,,,,,,,,,,,,,,,,,,,,,,,,,,,,space,11.662970200181007,,,,,,,,,,,,,,,,,,,,,,,,,,,,,,,,,,,,,,,,,,,,,,,,,,11,19,Prefer not to say,2021_Dec_15_1015,uniform_mix,2021.2.3,60.50020348930023,
,,,,,,,,,,,,,,,,,,,,,,,,,,,,,,,,,,,,,,,,,,,,space,9.263065499719232,,,,,,,,,,,,,,,,,,,,,,,,,,,,,,,,,,,,,,,,,,,,,,,,11,19,Prefer not to say,2021_Dec_15_1015,uniform_mix,2021.2.3,60.50020348930023,
,,,,,,,,,,,,,,,,,,,,,,,,,,,,,,,,,,,,,,,,,,,,,,space,27.274684499949217,,,,,,,,,,,,,,,,,,,,,,,,,,,,,,,,,,,,,,,,,,,,,,11,19,Prefer not to say,2021_Dec_15_1015,uniform_mix,2021.2.3,60.50020348930023,
,,,,,,,,,,,,,,,,,,,,,,,,,,,,,,,,,,,,,,,,,,,,,,,,space,1.3874474996700883,space,1.586312800180167,211.83715440006927,212.00853030011058,212.00853030011058,None,,space,46.93410230008885,,,,,,,,,,,,,,,,,,,,,,,,,,,,,,,,,,,11,19,Prefer not to say,2021_Dec_15_1015,uniform_mix,2021.2.3,60.50020348930023,
,,,,,,,,,,,,,,,,,,,,,,,,,,,,,,,,,,,,,,,,,,,,,,,,,,,,,,,,,,,259.6893736999482,None,space,2.8177371001802385,259.6893736999482,None,,,,,,,,,,,,,,,,,,,,,,,,,,,,,11,19,Prefer not to say,2021_Dec_15_1015,uniform_mix,2021.2.3,60.50020348930023,
c4_mix_ref.xlsx,c4_mix_t.xlsx,c4_mix.xlsx,stims/contrastref4.png,44,,,,,,,,,,,,,,,,,,,,0,0,0,0,0,0,0,3,,,,,,,,,,,,,,,,,,,space,3.2038202001713216,,,,,,,,,,,,,,n,2.4231202001683414,space,1.474943700246513,270.8758852002211,271.0458653001115,271.0458653001115,None,271.3078928999603,None,space,5.104601899627596,271.3078928999603,None,space,4.137034199666232,,,,,,,,,,,,,11,19,Prefer not to say,2021_Dec_15_1015,uniform_mix,2021.2.3,60.50020348930023,
c4_mix_ref.xlsx,c4_mix_t.xlsx,c4_mix.xlsx,stims/contrastref3.png,39,,,,,,,,,,,,,,,,,,,,0,0,0,0,0,1,1,2,,,,,,,,,,,,,,,,,,,space,0.8934118999168277,,,,,,,,,,,,,,n,0.8589094998314977,space,0.7880314998328686,284.31021430017427,284.48141989996657,284.48141989996657,None,284.7350138002075,None,space,1.180993199814111,284.7350138002075,None,space,2.4114765003323555,,,,,,,,,,,,,11,19,Prefer not to say,2021_Dec_15_1015,uniform_mix,2021.2.3,60.50020348930023,
c4_mix_ref.xlsx,c4_mix_t.xlsx,c4_mix.xlsx,stims/contrastref5.png,49,,,,,,,,,,,,,,,,,,,,0,0,0,0,0,2,2,4,,,,,,,,,,,,,,,,,,,space,0.892210999969393,,,,,,,,,,,,,,n,0.710362299811095,space,0.8157096998766065,292.00016060005873,292.1809062003158,292.1809062003158,None,292.4317054003477,None,space,1.812239599879831,292.4317054003477,None,space,2.0259680999442935,,,,,,,,,,,,,11,19,Prefer not to say,2021_Dec_15_1015,uniform_mix,2021.2.3,60.50020348930023,
c4_mix_ref.xlsx,c4_mix_t.xlsx,c4_mix.xlsx,stims/contrastref2.png,34,,,,,,,,,,,,,,,,,,,,0,0,0,0,0,3,3,1,,,,,,,,,,,,,,,,,,,space,1.0183915002271533,,,,,,,,,,,,,,n,0.639463400002569,space,1.084957899991423,300.18626370001584,300.35322599997744,300.35322599997744,None,300.6128996000625,None,space,1.7512763999402523,300.6128996000625,None,space,1.6489026001654565,,,,,,,,,,,,,11,19,Prefer not to say,2021_Dec_15_1015,uniform_mix,2021.2.3,60.50020348930023,
c4_mix_ref.xlsx,c4_mix_t.xlsx,c4_mix.xlsx,stims/contrastref1.png,29,,,,,,,,,,,,,,,,,,,,0,0,0,0,0,4,4,0,,,,,,,,,,,,,,,,,,,space,1.1504751997999847,,,,,,,,,,,,,,n,0.45566780027002096,space,0.7046758998185396,307.4865538002923,307.65630220016465,307.65630220016465,None,307.9275849000551,None,space,1.324118799995631,307.9275849000551,None,space,1.7001918000169098,,,,,,,,,,,,,11,19,Prefer not to say,2021_Dec_15_1015,uniform_mix,2021.2.3,60.50020348930023,
c4_mix_ref.xlsx,c4_mix_t.xlsx,c4_mix.xlsx,stims/contrast80.png,,80,3915,0.4,36,"[(40.0, 120.0), (-30.0, 120.0), (30.0, -140.0), (180.0, -90.0), (-140.0, 0.0), (-90.0, 140.0), (160.0, 40.0), (200.0, 140.0), (90.0, -90.0), (100.0, 10.0), (110.0, 100.0), (-190.0, 70.0), (-10.0, -100.0), (140.0, -30.0), (-160.0, -100.0), (-100.0, 70.0), (-50.0, -140.0), (-80.0, -70.0), (-82.87236101463114, -131.25733125968173), (-27.62693860254936, -149.95810518866426), (-90.62206392975455, -49.518356349154615), (-77.6956209253124, -86.31424465729242), (-82.25843016302049, 78.33013738266496), (-100.65873156650542, 53.724669052052434), (129.86120793396904, -54.04621859821303), (150.60785598524166, -9.520600120084865), (106.10958210659263, -2.1576600490044058), (101.77482484057585, 32.448277927349096), (122.95023553325719, 88.15000937550764), (92.70843829338423, 118.22835202708792), (-26.77458775193527, -94.70355137790281), (10.112992325780937, -106.68343018929278), (-172.6892487568681, 111.1253125866663), (-191.03799536109562, 45.653958848345496), (-185.39705064355385, -67.62555730676912), (-150.98333140987216, -126.57906235403237)]","[(40.0, 120.0), (-30.0, 120.0), (30.0, -140.0), (180.0, -90.0), (-140.0, 0.0), (-90.0, 140.0), (160.0, 40.0), (200.0, 140.0), (90.0, -90.0), (100.0, 10.0), (110.0, 100.0), (-190.0, 70.0), (-10.0, -100.0), (140.0, -30.0), (-160.0, -100.0), (-100.0, 70.0), (-50.0, -140.0), (-80.0, -70.0)]","[(-82.87236101463114, -131.25733125968173), (-27.62693860254936, -149.95810518866426), (-90.62206392975455, -49.518356349154615), (-77.6956209253124, -86.31424465729242), (-82.25843016302049, 78.33013738266496), (-100.65873156650542, 53.724669052052434), (129.86120793396904, -54.04621859821303), (150.60785598524166, -9.520600120084865), (106.10958210659263, -2.1576600490044058), (101.77482484057585, 32.448277927349096), (122.95023553325719, 88.15000937550764), (92.70843829338423, 118.22835202708792), (-26.77458775193527, -94.70355137790281), (10.112992325780937, -106.68343018929278), (-172.6892487568681, 111.1253125866663), (-191.03799536109562, 45.653958848345496), (-185.39705064355385, -67.62555730676912), (-150.98333140987216, -126.57906235403237)]",0,tangential,78.62,420.49,9.56,12.79,0.0856,4,,,,,0,0,0,0,,,,,0,0,0,79,,,,,,,,,,,,,,,space,1.798610399942845,,,,,34,,,,,,,,,,,,,,,,,,,,,,,,,space,13.215644100215286,326.51146200019866,None,,,,,,,,,11,19,Prefer not to say,2021_Dec_15_1015,uniform_mix,2021.2.3,60.50020348930023,
c4_mix_ref.xlsx,c4_mix_t.xlsx,c4_mix.xlsx,stims/contrast36.png,,36,4765,0.4,38,"[(0.0, -120.0), (-140.0, 80.0), (-200.0, -130.0), (100.0, 20.0), (160.0, -90.0), (-50.0, -140.0), (50.0, 140.0), (-80.0, -80.0), (160.0, 50.0), (10.0, 100.0), (120.0, 140.0), (90.0, -130.0), (-170.0, -10.0), (200.0, -10.0), (-50.0, 100.0), (-80.0, 60.0), (-100.0, -20.0), (90.0, 70.0), (100.0, -40.0), (-150.19346492900434, -9.52777236827744), (-65.06673057473907, -62.28173257841187), (-49.98275342869481, 86.60990507439331), (131.58988324520595, 35.810884704810924), (8.513817367515061, 87.17266902688664), (194.91201334679602, -96.4246544004641), (144.14392351668675, 159.92268659647095), (111.30267643476748, -154.12990813720194), (94.74823172833786, 82.29779394579822), (235.06064819153875, -17.661761319656357), (67.07270457236035, 169.22153955113936), (-87.99706745358074, -14.756891911242441), (-113.63432150193117, -14.358135081774762), (-69.47040238330518, 57.14800124862132), (-99.52043776261439, 69.52482367606714), (85.84041006608021, -34.79944886748736), (108.46516775619425, -50.48226910492805), (-41.447109920120724, -125.12367354067209), (-45.40803337185663, -160.12243532539247)]","[(0.0, -120.0), (-140.0, 80.0), (-200.0, -130.0), (100.0, 20.0), (160.0, -90.0), (-50.0, -140.0), (50.0, 140.0), (-80.0, -80.0), (160.0, 50.0), (10.0, 100.0), (120.0, 140.0), (90.0, -130.0), (-170.0, -10.0), (200.0, -10.0), (-50.0, 100.0), (-80.0, 60.0), (-100.0, -20.0), (90.0, 70.0), (100.0, -40.0)]","[(-150.19346492900434, -9.52777236827744), (-65.06673057473907, -62.28173257841187), (-49.98275342869481, 86.60990507439331), (131.58988324520595, 35.810884704810924), (8.513817367515061, 87.17266902688664), (194.91201334679602, -96.4246544004641), (144.14392351668675, 159.92268659647095), (111.30267643476748, -154.12990813720194), (94.74823172833786, 82.29779394579822), (235.06064819153875, -17.661761319656357), (67.07270457236035, 169.22153955113936), (-87.99706745358074, -14.756891911242441), (-113.63432150193117, -14.358135081774762), (-69.47040238330518, 57.14800124862132), (-99.52043776261439, 69.52482367606714), (85.84041006608021, -34.79944886748736), (108.46516775619425, -50.48226910492805), (-41.447109920120724, -125.12367354067209), (-45.40803337185663, -160.12243532539247)]",0.5,radial,80.2,444.23,9.28,12.54,0.0855,4,,,,,0,0,0,0,,,,,0,1,1,35,,,,,,,,,,,,,,,space,0.7833515000529587,,,,,27,,,,,,,,,,,,,,,,,,,,,,,,,,,331.08612240012735,None,,,,,,,,,11,19,Prefer not to say,2021_Dec_15_1015,uniform_mix,2021.2.3,60.50020348930023,
c4_mix_ref.xlsx,c4_mix_t.xlsx,c4_mix.xlsx,stims/contrast59.png,,59,3924,0.4,38,"[(70.0, -90.0), (30.0, 110.0), (50.0, -140.0), (-80.0, 60.0), (130.0, -70.0), (170.0, 0.0), (-120.0, 20.0), (-180.0, -130.0), (-190.0, 60.0), (0.0, -100.0), (-20.0, 140.0), (100.0, 20.0), (-100.0, 110.0), (-150.0, -50.0), (170.0, -140.0), (140.0, 80.0), (-50.0, -130.0), (-80.0, -60.0), (80.0, 100.0), (59.846386883421715, -75.17548601832982), (18.396648684278993, 101.2910259956363), (37.354827885556844, -125.19544086805767), (-72.06255886087152, 51.17198878395881), (114.80801808612387, -49.94566337475524), (145.10133594864482, -4.322589159748533), (-96.75760845525824, 19.636911069090388), (-146.24921653228313, -98.2597694887782), (-154.20683766954335, 48.425447676930254), (3.769219669219197, -113.36316592653307), (-27.601720970808774, 173.94844338667878), (111.2980995326151, 23.549267895533433), (-124.19036694267359, 134.7518625008029), (-186.26292420950932, -61.12412311234854), (178.53736108668554, -168.89182057282818), (173.2104294355204, 92.22854874072951), (-63.94968748224392, -150.85237695719442), (-86.856187742257, -71.12630142650022), (100.61991477963066, 124.27366797095493)]","[(70.0, -90.0), (30.0, 110.0), (50.0, -140.0), (-80.0, 60.0), (130.0, -70.0), (170.0, 0.0), (-120.0, 20.0), (-180.0, -130.0), (-190.0, 60.0), (0.0, -100.0), (-20.0, 140.0), (100.0, 20.0), (-100.0, 110.0), (-150.0, -50.0), (170.0, -140.0), (140.0, 80.0), (-50.0, -130.0), (-80.0, -60.0), (80.0, 100.0)]","[(59.846386883421715, -75.17548601832982), (18.396648684278993, 101.2910259956363), (37.354827885556844, -125.19544086805767), (-72.06255886087152, 51.17198878395881), (114.80801808612387, -49.94566337475524), (145.10133594864482, -4.322589159748533), (-96.75760845525824, 19.636911069090388), (-146.24921653228313, -98.2597694887782), (-154.20683766954335, 48.425447676930254), (3.769219669219197, -113.36316592653307), (-27.601720970808774, 173.94844338667878), (111.2980995326151, 23.549267895533433), (-124.19036694267359, 134.7518625008029), (-186.26292420950932, -61.12412311234854), (178.53736108668554, -168.89182057282818), (173.2104294355204, 92.22854874072951), (-63.94968748224392, -150.85237695719442), (-86.856187742257, -71.12630142650022), (100.61991477963066, 124.27366797095493)]",1,radial,80.71,444.38,9.51,12.84,0.0855,3,,,,,0,0,0,0,,,,,0,2,2,58,,,,,,,,,,,,,,,space,0.6698752995580435,,,,,33,,,,,,,,,,,,,,,,,,,,,,,,,,,335.311976400204,None,,,,,,,,,11,19,Prefer not to say,2021_Dec_15_1015,uniform_mix,2021.2.3,60.50020348930023,
c4_mix_ref.xlsx,c4_mix_t.xlsx,c4_mix.xlsx,stims/contrast57.png,,57,333,0.4,38,"[(-160.0, -110.0), (-70.0, -80.0), (60.0, 120.0), (-80.0, -140.0), (30.0, -110.0), (-130.0, 10.0), (190.0, -10.0), (-100.0, 50.0), (-30.0, 100.0), (130.0, -120.0), (-90.0, 100.0), (100.0, -10.0), (150.0, 100.0), (-20.0, -100.0), (100.0, -60.0), (100.0, 40.0), (-190.0, -20.0), (-110.0, -40.0), (-160.0, 140.0), (-141.33571613767498, -91.52011366467553), (-55.77715604247684, -77.23571709410389), (47.49689752522405, 110.72505621455913), (-66.09843928153963, -106.18185951650706), (21.203527869265038, -98.93060902475221), (-114.2340194420255, 6.837225495459657), (147.96811821876958, -13.377077697135276), (-93.99185492787758, 36.07644828018017), (-31.43389113402072, 86.760436287193), (146.40875788570065, -140.73895618939733), (-108.09701557581346, 108.27067674282337), (123.3324372618417, -10.679862529973821), (168.20042794671718, 123.25111098391638), (-24.842938384522466, -116.42957133967586), (105.23890997493938, -75.0675222648622), (109.13058780556094, 49.026244838923645), (-219.84382070512095, -12.03289242049927), (-126.20743293798833, -36.80935171345955), (-196.3016840453899, 162.48591787840303)]","[(-160.0, -110.0), (-70.0, -80.0), (60.0, 120.0), (-80.0, -140.0), (30.0, -110.0), (-130.0, 10.0), (190.0, -10.0), (-100.0, 50.0), (-30.0, 100.0), (130.0, -120.0), (-90.0, 100.0), (100.0, -10.0), (150.0, 100.0), (-20.0, -100.0), (100.0, -60.0), (100.0, 40.0), (-190.0, -20.0), (-110.0, -40.0), (-160.0, 140.0)]","[(-141.33571613767498, -91.52011366467553), (-55.77715604247684, -77.23571709410389), (47.49689752522405, 110.72505621455913), (-66.09843928153963, -106.18185951650706), (21.203527869265038, -98.93060902475221), (-114.2340194420255, 6.837225495459657), (147.96811821876958, -13.377077697135276), (-93.99185492787758, 36.07644828018017), (-31.43389113402072, 86.760436287193), (146.40875788570065, -140.73895618939733), (-108.09701557581346, 108.27067674282337), (123.3324372618417, -10.679862529973821), (168.20042794671718, 123.25111098391638), (-24.842938384522466, -116.42957133967586), (105.23890997493938, -75.0675222648622), (109.13058780556094, 49.026244838923645), (-219.84382070512095, -12.03289242049927), (-126.20743293798833, -36.80935171345955), (-196.3016840453899, 162.48591787840303)]",1,radial,81.3,444.58,9.33,12.51,0.0855,1,,,,,0,0,0,0,,,,,0,3,3,56,,,,,,,,,,,,,,,space,0.9371325001120567,,,,,25,,,,,,,,,,,,,,,,,,,,,,,,,,,338.86363560007885,None,,,,,,,,,11,19,Prefer not to say,2021_Dec_15_1015,uniform_mix,2021.2.3,60.50020348930023,
c4_mix_ref.xlsx,c4_mix_t.xlsx,c4_mix.xlsx,stims/contrast51.png,,51,4949,0.4,34,"[(-130.0, -120.0), (80.0, 80.0), (40.0, -110.0), (150.0, -110.0), (-90.0, 50.0), (-200.0, -10.0), (90.0, 140.0), (100.0, -40.0), (-140.0, 30.0), (-30.0, -130.0), (-140.0, 120.0), (-60.0, -90.0), (30.0, 120.0), (160.0, 100.0), (-120.0, -30.0), (-30.0, 110.0), (140.0, 0.0), (-108.52534989800364, -93.4902523245658), (61.9824445199725, 61.14739313973051), (31.812696326752636, -99.99796020501998), (113.69820476688581, -81.47667713765505), (-77.19375137740732, 41.16181332797803), (-175.67153056100068, -25.998867913093378), (67.42958147427683, 105.26025080421863), (91.5809283576942, -32.37906988117213), (-164.87693481790512, 33.90441940903632), (-24.791617381109198, -148.71638181843315), (-158.83543158886363, 151.33053295957163), (-64.86109339450499, -106.6754996662905), (34.178495611450536, 133.8865411079516), (192.87656158243576, 121.97868111047615), (-149.70514339591685, -34.19303435003779), (-31.522377035380615, 134.46908351370308), (160.50100658764748, -8.073108972626763)]","[(-130.0, -120.0), (80.0, 80.0), (40.0, -110.0), (150.0, -110.0), (-90.0, 50.0), (-200.0, -10.0), (90.0, 140.0), (100.0, -40.0), (-140.0, 30.0), (-30.0, -130.0), (-140.0, 120.0), (-60.0, -90.0), (30.0, 120.0), (160.0, 100.0), (-120.0, -30.0), (-30.0, 110.0), (140.0, 0.0)]","[(-108.52534989800364, -93.4902523245658), (61.9824445199725, 61.14739313973051), (31.812696326752636, -99.99796020501998), (113.69820476688581, -81.47667713765505), (-77.19375137740732, 41.16181332797803), (-175.67153056100068, -25.998867913093378), (67.42958147427683, 105.26025080421863), (91.5809283576942, -32.37906988117213), (-164.87693481790512, 33.90441940903632), (-24.791617381109198, -148.71638181843315), (-158.83543158886363, 151.33053295957163), (-64.86109339450499, -106.6754996662905), (34.178495611450536, 133.8865411079516), (192.87656158243576, 121.97868111047615), (-149.70514339591685, -34.19303435003779), (-31.522377035380615, 134.46908351370308), (160.50100658764748, -8.073108972626763)]",1,radial,76.86,401.2,9.38,12.6,0.0847,3,,,,,0,0,0,0,,,,,0,4,4,50,,,,,,,,,,,,,,,space,1.1598427998833358,,,,,26,,,,,,,,,,,,,,,,,,,,,,,,,,,343.3840032001026,None,,,,,,,,,11,19,Prefer not to say,2021_Dec_15_1015,uniform_mix,2021.2.3,60.50020348930023,
c4_mix_ref.xlsx,c4_mix_t.xlsx,c4_mix.xlsx,stims/contrast1.png,,1,457,0.4,34,"[(-60.0, 110.0), (-40.0, -140.0), (-110.0, -100.0), (150.0, 120.0), (100.0, 0.0), (80.0, -100.0), (160.0, 20.0), (-140.0, -10.0), (-100.0, 60.0), (80.0, 140.0), (-60.0, -80.0), (140.0, -90.0), (-180.0, 100.0), (-180.0, -70.0), (20.0, 130.0), (10.0, -120.0), (90.0, 60.0), (13.869669861558279, 146.89501112823876), (-147.9282430984944, -60.85874020783034), (-202.85285142413292, -76.67353758279815), (-81.5215921310935, 53.08960239872458), (-107.61141918831316, 74.91249783802625), (65.27087696180456, 127.52466778633799), (101.47617442077376, 163.7027887149124), (-49.20870058772314, -62.50495011433299), (-66.13249432305611, -89.95369188913578), (-166.89740847346724, 73.28482429982635), (-221.09970576843705, 117.09043033747047), (72.58696938760912, 47.30007380296372), (94.40993752556054, 73.96100383648456), (106.4011862177574, -69.33862450164787), (162.37089759633838, -87.77998467767904), (6.920053215475432, -99.89364965684928), (18.581399229647584, -142.02060117094493)]","[(-60.0, 110.0), (-40.0, -140.0), (-110.0, -100.0), (150.0, 120.0), (100.0, 0.0), (80.0, -100.0), (160.0, 20.0), (-140.0, -10.0), (-100.0, 60.0), (80.0, 140.0), (-60.0, -80.0), (140.0, -90.0), (-180.0, 100.0), (-180.0, -70.0), (20.0, 130.0), (10.0, -120.0), (90.0, 60.0)]","[(13.869669861558279, 146.89501112823876), (-147.9282430984944, -60.85874020783034), (-202.85285142413292, -76.67353758279815), (-81.5215921310935, 53.08960239872458), (-107.61141918831316, 74.91249783802625), (65.27087696180456, 127.52466778633799), (101.47617442077376, 163.7027887149124), (-49.20870058772314, -62.50495011433299), (-66.13249432305611, -89.95369188913578), (-166.89740847346724, 73.28482429982635), (-221.09970576843705, 117.09043033747047), (72.58696938760912, 47.30007380296372), (94.40993752556054, 73.96100383648456), (106.4011862177574, -69.33862450164787), (162.37089759633838, -87.77998467767904), (6.920053215475432, -99.89364965684928), (18.581399229647584, -142.02060117094493)]",0,radial,77.3,406.24,9.47,12.77,0.0837,1,,,,,0,0,0,0,,,,,0,5,5,0,,,,,,,,,,,,,,,space,1.6038063997402787,,,,,33,,,,,,,,,,,,,,,,,,,,,,,,,,,348.7747214003466,None,,,,,,,,,11,19,Prefer not to say,2021_Dec_15_1015,uniform_mix,2021.2.3,60.50020348930023,
c4_mix_ref.xlsx,c4_mix_t.xlsx,c4_mix.xlsx,stims/contrast126.png,,126,4163,0.4,36,"[(50.0, -130.0), (90.0, -80.0), (120.0, 0.0), (-150.0, 10.0), (-190.0, -110.0), (-190.0, 100.0), (190.0, 130.0), (20.0, 100.0), (-90.0, 60.0), (-120.0, 130.0), (-20.0, -140.0), (90.0, 50.0), (-100.0, -10.0), (160.0, -70.0), (-20.0, 140.0), (70.0, 100.0), (-90.0, -90.0), (200.0, 0.0), (31.788286580603312, -134.86041337667257), (79.1988154397335, -101.12887704888838), (120.20093264104493, -21.81886141761541), (-150.01733376646348, 26.172764098178334), (-219.5199148126153, -65.41181502088517), (-169.79245319030827, 117.13539522407751), (199.69551146266204, 102.49988529368787), (44.16666620622681, 93.4031643885398), (-86.41238954514364, 74.75124831176157), (-126.86945212133216, 104.11821021461316), (2.790837976853453, -147.97985333942816), (91.68312846269787, 63.23713342032697), (-102.73912695158835, -30.917536440502985), (174.37583345354923, -51.0800199984464), (-51.19995088462643, 133.10046599356906), (62.21403837948036, 112.31451667497824), (-68.17510737860974, -105.42862830604383), (184.7225437582609, 25.548481384851698)]","[(50.0, -130.0), (90.0, -80.0), (120.0, 0.0), (-150.0, 10.0), (-190.0, -110.0), (-190.0, 100.0), (190.0, 130.0), (20.0, 100.0), (-90.0, 60.0), (-120.0, 130.0), (-20.0, -140.0), (90.0, 50.0), (-100.0, -10.0), (160.0, -70.0), (-20.0, 140.0), (70.0, 100.0), (-90.0, -90.0), (200.0, 0.0)]","[(31.788286580603312, -134.86041337667257), (79.1988154397335, -101.12887704888838), (120.20093264104493, -21.81886141761541), (-150.01733376646348, 26.172764098178334), (-219.5199148126153, -65.41181502088517), (-169.79245319030827, 117.13539522407751), (199.69551146266204, 102.49988529368787), (44.16666620622681, 93.4031643885398), (-86.41238954514364, 74.75124831176157), (-126.86945212133216, 104.11821021461316), (2.790837976853453, -147.97985333942816), (91.68312846269787, 63.23713342032697), (-102.73912695158835, -30.917536440502985), (174.37583345354923, -51.0800199984464), (-51.19995088462643, 133.10046599356906), (62.21403837948036, 112.31451667497824), (-68.17510737860974, -105.42862830604383), (184.7225437582609, 25.548481384851698)]",1,tangential,78.21,421.42,9.83,13.21,0.0854,2,,,,,0,0,0,0,,,,,0,6,6,125,,,,,,,,,,,,,,,space,1.0768935000523925,,,,,42,,,,,,,,,,,,,,,,,,,,,,,,,,,353.22316870000213,None,,,,,,,,,11,19,Prefer not to say,2021_Dec_15_1015,uniform_mix,2021.2.3,60.50020348930023,
c4_mix_ref.xlsx,c4_mix_t.xlsx,c4_mix.xlsx,stims/contrast113.png,,113,4246,0.4,42,"[(-200.0, 60.0), (-110.0, 40.0), (-40.0, 100.0), (90.0, -70.0), (170.0, 50.0), (60.0, 90.0), (-60.0, -80.0), (-140.0, -60.0), (120.0, 110.0), (-100.0, 0.0), (-170.0, -140.0), (30.0, 140.0), (-110.0, 140.0), (-90.0, -140.0), (140.0, -130.0), (200.0, 140.0), (-20.0, -110.0), (100.0, 40.0), (30.0, -130.0), (200.0, -40.0), (130.0, 0.0), (-41.814202771667084, -110.11940990875075), (-108.84319063886399, -132.96538696674858), (140.3089899048957, -15.22004165561711), (-98.13724728234466, 17.121777588716967), (105.11107370783407, 21.616713251264173), (171.68742437875522, -116.73055892855103), (105.10129115234062, 120.62310881070309), (-132.86159942180046, -76.31752601800557), (51.29980517380618, 103.74531807417824), (165.83090887401409, 166.31074224220427), (206.95413175699412, -7.910021077807329), (-187.65201236566554, -109.99320078967867), (-141.72313176587824, -165.68696354690047), (-69.01080893982959, -70.01419603293542), (-50.40970029678286, -92.46860563683728), (49.90511352715271, 133.83518790864488), (12.74263236920578, 147.82566614182576), (-99.34656299535914, 159.34358020668142), (-135.30512566828244, 128.49602854580348), (3.5733578987483554, -136.93578512002372), (54.82570826859113, -129.55752504111317)]","[(-200.0, 60.0), (-110.0, 40.0), (-40.0, 100.0), (90.0, -70.0), (170.0, 50.0), (60.0, 90.0), (-60.0, -80.0), (-140.0, -60.0), (120.0, 110.0), (-100.0, 0.0), (-170.0, -140.0), (30.0, 140.0), (-110.0, 140.0), (-90.0, -140.0), (140.0, -130.0), (200.0, 140.0), (-20.0, -110.0), (100.0, 40.0), (30.0, -130.0), (200.0, -40.0), (130.0, 0.0)]","[(-41.814202771667084, -110.11940990875075), (-108.84319063886399, -132.96538696674858), (140.3089899048957, -15.22004165561711), (-98.13724728234466, 17.121777588716967), (105.11107370783407, 21.616713251264173), (171.68742437875522, -116.73055892855103), (105.10129115234062, 120.62310881070309), (-132.86159942180046, -76.31752601800557), (51.29980517380618, 103.74531807417824), (165.83090887401409, 166.31074224220427), (206.95413175699412, -7.910021077807329), (-187.65201236566554, -109.99320078967867), (-141.72313176587824, -165.68696354690047), (-69.01080893982959, -70.01419603293542), (-50.40970029678286, -92.46860563683728), (49.90511352715271, 133.83518790864488), (12.74263236920578, 147.82566614182576), (-99.34656299535914, 159.34358020668142), (-135.30512566828244, 128.49602854580348), (3.5733578987483554, -136.93578512002372), (54.82570826859113, -129.55752504111317)]",0.5,tangential,83.41,492.23,10.09,13.58,0.0853,1,,,,,0,0,0,0,,,,,0,7,7,112,,,,,,,,,,,,,,,space,1.5152410003356636,,,,,53,,,,,,,,,,,,,,,,,,,,,,,,,,,360.39715800015256,None,,,,,,,,,11,19,Prefer not to say,2021_Dec_15_1015,uniform_mix,2021.2.3,60.50020348930023,
c4_mix_ref.xlsx,c4_mix_t.xlsx,c4_mix.xlsx,stims/contrast76.png,,76,31,0.4,34,"[(180.0, 80.0), (90.0, 50.0), (-10.0, 130.0), (100.0, -80.0), (-130.0, -20.0), (-70.0, -100.0), (30.0, 100.0), (80.0, 100.0), (-140.0, -80.0), (200.0, -110.0), (120.0, -10.0), (-180.0, 90.0), (-10.0, -110.0), (-90.0, 100.0), (-100.0, 50.0), (200.0, -20.0), (40.0, -140.0), (-108.86244094333011, 38.115031280656), (201.73739930134445, -66.91590652832986), (185.29488846839416, 0.6023157936356256), (-79.1895540830445, 110.22239776417518), (-107.74796284143896, 90.67031067689037), (16.870671161834494, -140.83158621334528), (57.20071315528733, -125.15052202907877), (116.13821524104759, -39.47831198398258), (120.21659959880647, 6.060789351548607), (-22.631618180993115, -110.26477657702594), (8.35693779858029, -116.83012793251741), (-142.70564756586734, -57.7789601324738), (-126.45970803424913, -96.00884126116202), (175.0039582773502, -158.08628924580216), (210.90355333554172, -88.50154481773214), (-163.19298391976665, 129.71096745862894), (-205.83850348861358, 52.35440678027237)]","[(180.0, 80.0), (90.0, 50.0), (-10.0, 130.0), (100.0, -80.0), (-130.0, -20.0), (-70.0, -100.0), (30.0, 100.0), (80.0, 100.0), (-140.0, -80.0), (200.0, -110.0), (120.0, -10.0), (-180.0, 90.0), (-10.0, -110.0), (-90.0, 100.0), (-100.0, 50.0), (200.0, -20.0), (40.0, -140.0)]","[(-108.86244094333011, 38.115031280656), (201.73739930134445, -66.91590652832986), (185.29488846839416, 0.6023157936356256), (-79.1895540830445, 110.22239776417518), (-107.74796284143896, 90.67031067689037), (16.870671161834494, -140.83158621334528), (57.20071315528733, -125.15052202907877), (116.13821524104759, -39.47831198398258), (120.21659959880647, 6.060789351548607), (-22.631618180993115, -110.26477657702594), (8.35693779858029, -116.83012793251741), (-142.70564756586734, -57.7789601324738), (-126.45970803424913, -96.00884126116202), (175.0039582773502, -158.08628924580216), (210.90355333554172, -88.50154481773214), (-163.19298391976665, 129.71096745862894), (-205.83850348861358, 52.35440678027237)]",0,tangential,76.29,389.22,10.01,13.3,0.0874,4,,,,,0,0,0,0,,,,,0,8,8,75,,,,,,,,,,,,,,,space,0.861644399818033,,,,,28,,,,,,,,,,,,,,,,,,,,,,,,,,,366.753217600286,None,,,,,,,,,11,19,Prefer not to say,2021_Dec_15_1015,uniform_mix,2021.2.3,60.50020348930023,
c4_mix_ref.xlsx,c4_mix_t.xlsx,c4_mix.xlsx,stims/contrast19.png,,19,2476,0.4,42,"[(-200.0, 0.0), (140.0, 40.0), (70.0, 140.0), (-200.0, -100.0), (-80.0, 60.0), (-60.0, 130.0), (140.0, -50.0), (-120.0, -120.0), (100.0, -10.0), (90.0, 60.0), (180.0, 130.0), (10.0, 120.0), (-140.0, 110.0), (-130.0, 30.0), (200.0, -140.0), (-40.0, -120.0), (80.0, -60.0), (-120.0, -50.0), (50.0, -100.0), (110.0, -120.0), (200.0, 0.0), (231.86219948268325, 8.244771422283934), (161.37980509598916, -129.022705368374), (239.49041157526864, -145.68730089156122), (-100.23762036493066, -39.459309878789526), (-145.84041599975612, -56.58078833116845), (88.1901140709982, -97.10074840184882), (120.9529691469239, -143.63985208218088), (8.88787319927021, 102.59766217224231), (12.697713349212847, 144.5459745905068), (141.86357813073724, 122.2234285400229), (196.79944724061156, 156.53266933497108), (-130.2038110183545, 92.14470430346441), (-168.95847901689768, 115.98257831493478), (-26.727211568418447, -110.23727658537369), (-47.5613289491089, -138.4592822403656), (37.80910906572128, -81.47029706070174), (60.45756089732427, -116.17841483218135), (-114.3976951434887, 31.6875040141276), (-143.78185712062105, 43.77360072315147), (59.528250202040816, -47.456058593488876), (92.06739852263003, -67.52496922408059)]","[(-200.0, 0.0), (140.0, 40.0), (70.0, 140.0), (-200.0, -100.0), (-80.0, 60.0), (-60.0, 130.0), (140.0, -50.0), (-120.0, -120.0), (100.0, -10.0), (90.0, 60.0), (180.0, 130.0), (10.0, 120.0), (-140.0, 110.0), (-130.0, 30.0), (200.0, -140.0), (-40.0, -120.0), (80.0, -60.0), (-120.0, -50.0), (50.0, -100.0), (110.0, -120.0), (200.0, 0.0)]","[(231.86219948268325, 8.244771422283934), (161.37980509598916, -129.022705368374), (239.49041157526864, -145.68730089156122), (-100.23762036493066, -39.459309878789526), (-145.84041599975612, -56.58078833116845), (88.1901140709982, -97.10074840184882), (120.9529691469239, -143.63985208218088), (8.88787319927021, 102.59766217224231), (12.697713349212847, 144.5459745905068), (141.86357813073724, 122.2234285400229), (196.79944724061156, 156.53266933497108), (-130.2038110183545, 92.14470430346441), (-168.95847901689768, 115.98257831493478), (-26.727211568418447, -110.23727658537369), (-47.5613289491089, -138.4592822403656), (37.80910906572128, -81.47029706070174), (60.45756089732427, -116.17841483218135), (-114.3976951434887, 31.6875040141276), (-143.78185712062105, 43.77360072315147), (59.528250202040816, -47.456058593488876), (92.06739852263003, -67.52496922408059)]",0,radial,87.65,490.99,10.16,13.64,0.0855,3,,,,,0,0,0,0,,,,,0,9,9,18,,,,,,,,,,,,,,,space,1.3710618996992707,,,,,24,,,,,,,,,,,,,,,,,,,,,,,,,,,371.468767600134,None,,,,,,,,,11,19,Prefer not to say,2021_Dec_15_1015,uniform_mix,2021.2.3,60.50020348930023,
c4_mix_ref.xlsx,c4_mix_t.xlsx,c4_mix.xlsx,stims/contrast27.png,,27,394,0.4,34,"[(-140.0, -60.0), (-80.0, 120.0), (120.0, -40.0), (-150.0, 110.0), (70.0, 90.0), (200.0, -90.0), (-80.0, -100.0), (180.0, 10.0), (-20.0, -130.0), (80.0, -120.0), (160.0, 110.0), (-170.0, 20.0), (-100.0, 20.0), (10.0, 110.0), (-140.0, -130.0), (20.0, -100.0), (120.0, 40.0), (-83.79512995212944, 23.102343040385293), (159.93502305745295, 17.889110164104437), (141.0223981072837, 90.40163172276564), (95.19506048505825, 31.619150970820705), (-188.98920607821478, 10.716615215826074), (-25.830970046933494, -146.5286168411991), (8.94006210807045, 125.70423050214612), (-89.85411811301026, -121.35552581398251), (214.74617499533306, -112.97856313373875), (55.19885720349418, 84.64750614056697), (84.23948620071484, 103.76648785737025), (-116.08882545892068, -113.39879509845468), (-171.61236991370538, -142.78886288598184), (61.16414040193848, -109.78809262009946), (97.68957873929139, -125.92642234662435), (23.087773371575906, -84.6905412611039), (17.27389722906019, -116.01119481348351)]","[(-140.0, -60.0), (-80.0, 120.0), (120.0, -40.0), (-150.0, 110.0), (70.0, 90.0), (200.0, -90.0), (-80.0, -100.0), (180.0, 10.0), (-20.0, -130.0), (80.0, -120.0), (160.0, 110.0), (-170.0, 20.0), (-100.0, 20.0), (10.0, 110.0), (-140.0, -130.0), (20.0, -100.0), (120.0, 40.0)]","[(-83.79512995212944, 23.102343040385293), (159.93502305745295, 17.889110164104437), (141.0223981072837, 90.40163172276564), (95.19506048505825, 31.619150970820705), (-188.98920607821478, 10.716615215826074), (-25.830970046933494, -146.5286168411991), (8.94006210807045, 125.70423050214612), (-89.85411811301026, -121.35552581398251), (214.74617499533306, -112.97856313373875), (55.19885720349418, 84.64750614056697), (84.23948620071484, 103.76648785737025), (-116.08882545892068, -113.39879509845468), (-171.61236991370538, -142.78886288598184), (61.16414040193848, -109.78809262009946), (97.68957873929139, -125.92642234662435), (23.087773371575906, -84.6905412611039), (17.27389722906019, -116.01119481348351)]",0.5,radial,77.96,396.19,9.64,12.84,0.0858,3,,,,,0,0,0,0,,,,,0,10,10,26,,,,,,,,,,,,,,,space,1.2174367001280189,,,,,19,,,,,,,,,,,,,,,,,,,,,,,,,,,376.830714400392,None,,,,,,,,,11,19,Prefer not to say,2021_Dec_15_1015,uniform_mix,2021.2.3,60.50020348930023,
c4_mix_ref.xlsx,c4_mix_t.xlsx,c4_mix.xlsx,stims/contrast92.png,,92,4514,0.4,42,"[(0.0, 120.0), (80.0, 110.0), (-200.0, -100.0), (-60.0, -100.0), (-60.0, 110.0), (170.0, 40.0), (90.0, -60.0), (-80.0, 70.0), (-200.0, 100.0), (120.0, 0.0), (200.0, -30.0), (-160.0, -10.0), (-130.0, -140.0), (90.0, 60.0), (-90.0, -50.0), (60.0, -110.0), (-130.0, 50.0), (0.0, -140.0), (-130.0, 140.0), (190.0, 120.0), (130.0, -120.0), (19.375077974220716, -143.65010519702184), (196.43673328594576, -54.45448667703158), (196.82821187612473, 6.000111301918025), (-154.4963317724652, 22.829042284833235), (-168.85461167891611, -35.23710039999017), (99.9693152662364, -149.93526265895315), (144.4457597538317, -102.23310391610994), (-138.48011376263185, -110.64873244819829), (-105.61949391948826, -160.17796541618895), (103.6860035264739, 55.127152328257026), (77.11189417273593, 82.228315480354), (-119.01057223277277, 159.24713453317986), (-151.39819452962718, 111.83706472426498), (-129.65944816463943, 70.50884780473285), (-122.98761569939865, 32.918217761808094), (-99.91224969113811, -32.63215454214573), (-82.14540486559179, -65.15139729942133), (211.63486633660443, 105.64015397834604), (176.14901946625977, 152.06815504772283), (36.912506572290866, -123.60750449033921), (86.02983387221022, -101.2001148286595)]","[(0.0, 120.0), (80.0, 110.0), (-200.0, -100.0), (-60.0, -100.0), (-60.0, 110.0), (170.0, 40.0), (90.0, -60.0), (-80.0, 70.0), (-200.0, 100.0), (120.0, 0.0), (200.0, -30.0), (-160.0, -10.0), (-130.0, -140.0), (90.0, 60.0), (-90.0, -50.0), (60.0, -110.0), (-130.0, 50.0), (0.0, -140.0), (-130.0, 140.0), (190.0, 120.0), (130.0, -120.0)]","[(19.375077974220716, -143.65010519702184), (196.43673328594576, -54.45448667703158), (196.82821187612473, 6.000111301918025), (-154.4963317724652, 22.829042284833235), (-168.85461167891611, -35.23710039999017), (99.9693152662364, -149.93526265895315), (144.4457597538317, -102.23310391610994), (-138.48011376263185, -110.64873244819829), (-105.61949391948826, -160.17796541618895), (103.6860035264739, 55.127152328257026), (77.11189417273593, 82.228315480354), (-119.01057223277277, 159.24713453317986), (-151.39819452962718, 111.83706472426498), (-129.65944816463943, 70.50884780473285), (-122.98761569939865, 32.918217761808094), (-99.91224969113811, -32.63215454214573), (-82.14540486559179, -65.15139729942133), (211.63486633660443, 105.64015397834604), (176.14901946625977, 152.06815504772283), (36.912506572290866, -123.60750449033921), (86.02983387221022, -101.2001148286595)]",0,tangential,83.01,491.43,10.36,13.86,0.0855,4,,,,,0,0,0,0,,,,,0,11,11,91,,,,,,,,,,,,,,,space,1.007631199900061,,,,,34,,,,,,,,,,,,,,,,,,,,,,,,,,,380.9830794003792,None,,,,,,,,,11,19,Prefer not to say,2021_Dec_15_1015,uniform_mix,2021.2.3,60.50020348930023,
c4_mix_ref.xlsx,c4_mix_t.xlsx,c4_mix.xlsx,stims/contrast127.png,,127,1902,0.4,36,"[(-10.0, -140.0), (100.0, -10.0), (-110.0, -40.0), (130.0, 110.0), (60.0, -90.0), (180.0, -30.0), (170.0, -130.0), (-50.0, 120.0), (110.0, -60.0), (-130.0, 10.0), (-100.0, 80.0), (140.0, 30.0), (-200.0, -90.0), (-90.0, -110.0), (80.0, 60.0), (-170.0, 140.0), (30.0, 110.0), (-180.0, 60.0), (-24.945299051712, -133.4799618114024), (105.1509569770368, -28.07196018098371), (-120.7737452306969, -16.60705274531142), (149.7956008422908, 98.83512987775799), (42.26530433030467, -96.64821329311232), (168.79442246873938, -72.86370949062382), (158.63340101309203, -163.50601086361206), (-26.490391143427814, 134.34173667848978), (98.8173837038906, -77.95634863543474), (-138.50979622025432, -8.793467228265655), (-111.6883310466803, 59.02478646023411), (125.34315572655271, 45.766242170528514), (-191.52449494549955, -111.58955000003598), (-74.40887938628745, -115.83163226266018), (64.58336179272963, 72.46905394958837), (-207.6513761726798, 111.17478419370252), (10.375645264108513, 121.3344745300663), (-202.2024895797899, 48.68251878564246)]","[(-10.0, -140.0), (100.0, -10.0), (-110.0, -40.0), (130.0, 110.0), (60.0, -90.0), (180.0, -30.0), (170.0, -130.0), (-50.0, 120.0), (110.0, -60.0), (-130.0, 10.0), (-100.0, 80.0), (140.0, 30.0), (-200.0, -90.0), (-90.0, -110.0), (80.0, 60.0), (-170.0, 140.0), (30.0, 110.0), (-180.0, 60.0)]","[(-24.945299051712, -133.4799618114024), (105.1509569770368, -28.07196018098371), (-120.7737452306969, -16.60705274531142), (149.7956008422908, 98.83512987775799), (42.26530433030467, -96.64821329311232), (168.79442246873938, -72.86370949062382), (158.63340101309203, -163.50601086361206), (-26.490391143427814, 134.34173667848978), (98.8173837038906, -77.95634863543474), (-138.50979622025432, -8.793467228265655), (-111.6883310466803, 59.02478646023411), (125.34315572655271, 45.766242170528514), (-191.52449494549955, -111.58955000003598), (-74.40887938628745, -115.83163226266018), (64.58336179272963, 72.46905394958837), (-207.6513761726798, 111.17478419370252), (10.375645264108513, 121.3344745300663), (-202.2024895797899, 48.68251878564246)]",1,tangential,79.77,421.05,9.86,13.27,0.0855,3,,,,,0,0,0,0,,,,,0,12,12,126,,,,,,,,,,,,,,,space,2.2362267998978496,,,,,39,,,,,,,,,,,,,,,,,,,,,,,,,,,387.3930820999667,None,,,,,,,,,11,19,Prefer not to say,2021_Dec_15_1015,uniform_mix,2021.2.3,60.50020348930023,
c4_mix_ref.xlsx,c4_mix_t.xlsx,c4_mix.xlsx,stims/contrastsub3.png,,3,None,0.4,2,"[(150.0, 110.0), (-60.0, -120.0)]",None,None,None,None,None,None,None,None,None,None,,,,,0,0,0,0,,,,,0,13,13,146,,,,,,,,,,,,,,,space,1.1340001998469234,,,,,2,,,,,,,,,,,,,,,,,,,,,,,,,,,392.9259552001022,None,,,,,,,,,11,19,Prefer not to say,2021_Dec_15_1015,uniform_mix,2021.2.3,60.50020348930023,
c4_mix_ref.xlsx,c4_mix_t.xlsx,c4_mix.xlsx,stims/contrast9.png,,9,505,0.4,38,"[(60.0, 110.0), (-130.0, -60.0), (110.0, 0.0), (-110.0, -10.0), (-180.0, -140.0), (90.0, 50.0), (190.0, 60.0), (-200.0, 120.0), (60.0, -80.0), (-20.0, 100.0), (-160.0, 30.0), (150.0, -100.0), (-100.0, 50.0), (120.0, 100.0), (-70.0, -100.0), (-200.0, -40.0), (50.0, -140.0), (0.0, -120.0), (-80.0, 100.0), (-122.08185751424138, 55.233537533074944), (47.48699582707431, -114.05654974505737), (66.53283452932216, -166.28601436139655), (98.10896915122498, 88.36297080265912), (140.491657279012, 104.55200224094753), (-135.95273328439137, 17.867315170503822), (-190.049546353241, 37.514683090701226), (-68.1842809716343, 84.5183436980946), (-86.58029279000807, 115.49054854212352), (-51.7865532344191, -76.78760759500355), (-82.85647368047742, -124.86259075687025), (-164.3356118201491, -43.233295652333965), (-236.97415297445517, -46.33955748689198), (-20.995173734412127, 88.443030099038), (-25.777487083603692, 123.56745977506449), (8.698735510340423, -100.57674153784632), (9.574647879898885, -135.24412551851358), (126.38968694334777, -93.64094331540886), (166.57659545408353, -120.50937901840433)]","[(60.0, 110.0), (-130.0, -60.0), (110.0, 0.0), (-110.0, -10.0), (-180.0, -140.0), (90.0, 50.0), (190.0, 60.0), (-200.0, 120.0), (60.0, -80.0), (-20.0, 100.0), (-160.0, 30.0), (150.0, -100.0), (-100.0, 50.0), (120.0, 100.0), (-70.0, -100.0), (-200.0, -40.0), (50.0, -140.0), (0.0, -120.0), (-80.0, 100.0)]","[(-122.08185751424138, 55.233537533074944), (47.48699582707431, -114.05654974505737), (66.53283452932216, -166.28601436139655), (98.10896915122498, 88.36297080265912), (140.491657279012, 104.55200224094753), (-135.95273328439137, 17.867315170503822), (-190.049546353241, 37.514683090701226), (-68.1842809716343, 84.5183436980946), (-86.58029279000807, 115.49054854212352), (-51.7865532344191, -76.78760759500355), (-82.85647368047742, -124.86259075687025), (-164.3356118201491, -43.233295652333965), (-236.97415297445517, -46.33955748689198), (-20.995173734412127, 88.443030099038), (-25.777487083603692, 123.56745977506449), (8.698735510340423, -100.57674153784632), (9.574647879898885, -135.24412551851358), (126.38968694334777, -93.64094331540886), (166.57659545408353, -120.50937901840433)]",0,radial,80.38,444.3,9.62,12.77,0.0855,1,,,,,0,0,0,0,,,,,0,14,14,8,,,,,,,,,,,,,,,space,1.8962014997377992,,,,,26,,,,,,,,,,,,,,,,,,,,,,,,,,,397.4813409000635,None,,,,,,,,,11,19,Prefer not to say,2021_Dec_15_1015,uniform_mix,2021.2.3,60.50020348930023,
c4_mix_ref.xlsx,c4_mix_t.xlsx,c4_mix.xlsx,stims/contrast38.png,,38,1742,0.4,40,"[(30.0, -100.0), (-50.0, -90.0), (110.0, 100.0), (-50.0, 130.0), (150.0, 10.0), (-140.0, 80.0), (200.0, -50.0), (-80.0, 90.0), (190.0, -140.0), (-110.0, -50.0), (190.0, 100.0), (-120.0, 20.0), (100.0, -60.0), (-100.0, -110.0), (-190.0, -140.0), (40.0, 120.0), (-20.0, -130.0), (80.0, -130.0), (100.0, 30.0), (-190.0, -20.0), (73.10839302961892, -107.66170236703377), (-126.58873827874493, 57.48139916743696), (-12.764998873733663, -107.96990447842865), (-63.669766460324816, 83.33282934589533), (-168.16378935660822, -111.02363616337314), (49.922121563555976, 133.11035056360925), (-136.35094439659193, -63.981059693871046), (225.33142119674218, 112.12554916916895), (-209.87488991402142, -21.95363357578113), (111.71221282919645, -74.3607076241781), (91.84240760681764, 18.368843033686975), (117.95905981230572, 28.64115318862377), (-77.15821491115825, -101.32299600447347), (-117.46637480141686, -129.59246965895622), (157.5117302913643, -130.1316952025905), (224.55844927110013, -151.62161034058124), (179.59160655749199, -35.534936259315025), (233.0025563547943, -56.705155329824834), (-108.92399243308971, 12.15445586072412), (-143.6540833254559, 19.982394451679383)]","[(30.0, -100.0), (-50.0, -90.0), (110.0, 100.0), (-50.0, 130.0), (150.0, 10.0), (-140.0, 80.0), (200.0, -50.0), (-80.0, 90.0), (190.0, -140.0), (-110.0, -50.0), (190.0, 100.0), (-120.0, 20.0), (100.0, -60.0), (-100.0, -110.0), (-190.0, -140.0), (40.0, 120.0), (-20.0, -130.0), (80.0, -130.0), (100.0, 30.0), (-190.0, -20.0)]","[(73.10839302961892, -107.66170236703377), (-126.58873827874493, 57.48139916743696), (-12.764998873733663, -107.96990447842865), (-63.669766460324816, 83.33282934589533), (-168.16378935660822, -111.02363616337314), (49.922121563555976, 133.11035056360925), (-136.35094439659193, -63.981059693871046), (225.33142119674218, 112.12554916916895), (-209.87488991402142, -21.95363357578113), (111.71221282919645, -74.3607076241781), (91.84240760681764, 18.368843033686975), (117.95905981230572, 28.64115318862377), (-77.15821491115825, -101.32299600447347), (-117.46637480141686, -129.59246965895622), (157.5117302913643, -130.1316952025905), (224.55844927110013, -151.62161034058124), (179.59160655749199, -35.534936259315025), (233.0025563547943, -56.705155329824834), (-108.92399243308971, 12.15445586072412), (-143.6540833254559, 19.982394451679383)]",0.5,radial,85.2,468.05,10.27,13.66,0.0855,2,,,,,0,0,0,0,,,,,0,15,15,37,,,,,,,,,,,,,,,space,1.3147983001545072,,,,,36,,,,,,,,,,,,,,,,,,,,,,,,,,,404.4266496002674,None,,,,,,,,,11,19,Prefer not to say,2021_Dec_15_1015,uniform_mix,2021.2.3,60.50020348930023,
c4_mix_ref.xlsx,c4_mix_t.xlsx,c4_mix.xlsx,stims/contrast122.png,,122,525,0.4,34,"[(-160.0, -20.0), (-100.0, 0.0), (0.0, 100.0), (70.0, 140.0), (130.0, -20.0), (-90.0, 120.0), (-170.0, 80.0), (80.0, -60.0), (-160.0, -140.0), (-90.0, 50.0), (-120.0, -70.0), (10.0, -140.0), (160.0, 70.0), (90.0, -130.0), (80.0, 60.0), (200.0, -70.0), (-50.0, -100.0), (-160.59311813415252, -2.759418950547314), (-101.41000772219938, 17.939299706339114), (12.897703823749737, 99.50195268240924), (83.68251864105042, 128.70373830383963), (128.11823316133888, -39.629619654704044), (-77.1162929480002, 140.7117545683357), (-145.68869385465848, 106.82726676895876), (69.61395792941515, -74.1178427366792), (-154.82163324696327, -164.52490747393176), (-95.03862263149938, 30.17113674727878), (-115.0343136345916, -93.99560327274827), (24.679593626770526, -151.09171597280147), (137.42931920982295, 100.25568576058237), (103.48347112261939, -120.29158997680722), (70.49380784353224, 68.47070731078774), (221.6710943717785, -39.28015511831907), (-40.731589327200226, -108.33442441276682)]","[(-160.0, -20.0), (-100.0, 0.0), (0.0, 100.0), (70.0, 140.0), (130.0, -20.0), (-90.0, 120.0), (-170.0, 80.0), (80.0, -60.0), (-160.0, -140.0), (-90.0, 50.0), (-120.0, -70.0), (10.0, -140.0), (160.0, 70.0), (90.0, -130.0), (80.0, 60.0), (200.0, -70.0), (-50.0, -100.0)]","[(-160.59311813415252, -2.759418950547314), (-101.41000772219938, 17.939299706339114), (12.897703823749737, 99.50195268240924), (83.68251864105042, 128.70373830383963), (128.11823316133888, -39.629619654704044), (-77.1162929480002, 140.7117545683357), (-145.68869385465848, 106.82726676895876), (69.61395792941515, -74.1178427366792), (-154.82163324696327, -164.52490747393176), (-95.03862263149938, 30.17113674727878), (-115.0343136345916, -93.99560327274827), (24.679593626770526, -151.09171597280147), (137.42931920982295, 100.25568576058237), (103.48347112261939, -120.29158997680722), (70.49380784353224, 68.47070731078774), (221.6710943717785, -39.28015511831907), (-40.731589327200226, -108.33442441276682)]",1,tangential,75.79,398.99,9.49,12.81,0.0852,2,,,,,0,0,0,0,,,,,0,16,16,121,,,,,,,,,,,,,,,space,1.017271799966693,,,,,29,,,,,,,,,,,,,,,,,,,,,,,,,,,408.5544398003258,None,,,,,,,,,11,19,Prefer not to say,2021_Dec_15_1015,uniform_mix,2021.2.3,60.50020348930023,
c4_mix_ref.xlsx,c4_mix_t.xlsx,c4_mix.xlsx,stims/contrast125.png,,125,3194,0.4,36,"[(-200.0, 130.0), (-190.0, 30.0), (-60.0, 130.0), (-10.0, 110.0), (200.0, -10.0), (100.0, 50.0), (-80.0, 60.0), (110.0, -30.0), (50.0, -110.0), (-30.0, -120.0), (-90.0, -140.0), (140.0, -110.0), (90.0, 120.0), (160.0, 110.0), (-170.0, -100.0), (-110.0, -30.0), (-130.0, 70.0), (-70.0, -80.0), (-172.85857352095357, 149.0752454144857), (-187.55731672373867, 57.877790364589345), (-35.79981279186981, 138.48451021397193), (10.444220793214072, 117.04037622744787), (208.66835372951186, -33.598442913031334), (102.44436568380112, 31.281712430806053), (-64.12294790492462, 75.8371747806265), (112.09181622327611, -48.11350472030158), (32.94081047265237, -118.71731693212648), (-18.226584610372214, -132.2198272844152), (-69.28276682907473, -163.02958290376063), (151.1437631217487, -87.47176568474116), (60.01839639378011, 132.62056752385308), (147.43436705251764, 127.02646779065233), (-161.01951984816492, -124.71369561032378), (-109.4429934350527, -43.193421667581845), (-147.35506367219978, 58.19318444124684), (-60.83413515310241, -85.66893704715109)]","[(-200.0, 130.0), (-190.0, 30.0), (-60.0, 130.0), (-10.0, 110.0), (200.0, -10.0), (100.0, 50.0), (-80.0, 60.0), (110.0, -30.0), (50.0, -110.0), (-30.0, -120.0), (-90.0, -140.0), (140.0, -110.0), (90.0, 120.0), (160.0, 110.0), (-170.0, -100.0), (-110.0, -30.0), (-130.0, 70.0), (-70.0, -80.0)]","[(-172.85857352095357, 149.0752454144857), (-187.55731672373867, 57.877790364589345), (-35.79981279186981, 138.48451021397193), (10.444220793214072, 117.04037622744787), (208.66835372951186, -33.598442913031334), (102.44436568380112, 31.281712430806053), (-64.12294790492462, 75.8371747806265), (112.09181622327611, -48.11350472030158), (32.94081047265237, -118.71731693212648), (-18.226584610372214, -132.2198272844152), (-69.28276682907473, -163.02958290376063), (151.1437631217487, -87.47176568474116), (60.01839639378011, 132.62056752385308), (147.43436705251764, 127.02646779065233), (-161.01951984816492, -124.71369561032378), (-109.4429934350527, -43.193421667581845), (-147.35506367219978, 58.19318444124684), (-60.83413515310241, -85.66893704715109)]",1,tangential,78.75,423.85,9.94,13.37,0.0849,1,,,,,0,0,0,0,,,,,0,17,17,124,,,,,,,,,,,,,,,space,1.5118416999466717,,,,,33,,,,,,,,,,,,,,,,,,,,,,,,,,,415.2037401003763,None,,,,,,,,,11,19,Prefer not to say,2021_Dec_15_1015,uniform_mix,2021.2.3,60.50020348930023,
c4_mix_ref.xlsx,c4_mix_t.xlsx,c4_mix.xlsx,stims/contrastsub8.png,,8,None,0.4,4,"[(50.0, -130.0), (-110.0, 90.0), (160.0, 30.0), (140.0, -110.0)]",None,None,None,None,None,None,None,None,None,None,,,,,0,0,0,0,,,,,0,18,18,151,,,,,,,,,,,,,,,space,1.239843400195241,,,,,4,,,,,,,,,,,,,,,,,,,,,,,,,,,419.948791900184,None,,,,,,,,,11,19,Prefer not to say,2021_Dec_15_1015,uniform_mix,2021.2.3,60.50020348930023,
c4_mix_ref.xlsx,c4_mix_t.xlsx,c4_mix.xlsx,stims/contrast16.png,,16,523,0.4,40,"[(20.0, 100.0), (-110.0, 130.0), (-170.0, 30.0), (-40.0, 120.0), (180.0, -120.0), (40.0, -130.0), (-100.0, -40.0), (100.0, 10.0), (190.0, 60.0), (90.0, -90.0), (-100.0, 10.0), (-160.0, -100.0), (50.0, 140.0), (-30.0, -100.0), (120.0, 100.0), (-80.0, 60.0), (70.0, 80.0), (-200.0, 120.0), (140.0, -30.0), (-80.0, -90.0), (-61.84772580795637, 47.595997815306), (-96.16136685838805, 76.05798102717546), (57.79675046086379, 68.01331726071689), (81.77962421911303, 89.7043259377152), (125.62367070663939, -19.177587600496917), (154.9063969169841, -33.840516367504634), (-21.71666859466247, -77.25380898295516), (-35.85607133573312, -121.71998986902207), (-125.789876880304, -92.33976797281974), (-195.3986410233664, -110.55548626974044), (100.70832889380661, 80.27405617559155), (143.7610636934514, 126.16343951291428), (48.000823016044514, 110.46157821941793), (58.97393165320047, 161.2970595748078), (-81.85146211066605, 14.290069709106918), (-118.9531723573568, 6.862066040821112), (-176.87165198211966, 101.35647664692459), (-242.30941806519695, 154.91295924008915), (-66.01660908326318, -81.77073435880138), (-87.29700252244733, -103.34479463943921)]","[(20.0, 100.0), (-110.0, 130.0), (-170.0, 30.0), (-40.0, 120.0), (180.0, -120.0), (40.0, -130.0), (-100.0, -40.0), (100.0, 10.0), (190.0, 60.0), (90.0, -90.0), (-100.0, 10.0), (-160.0, -100.0), (50.0, 140.0), (-30.0, -100.0), (120.0, 100.0), (-80.0, 60.0), (70.0, 80.0), (-200.0, 120.0), (140.0, -30.0), (-80.0, -90.0)]","[(-61.84772580795637, 47.595997815306), (-96.16136685838805, 76.05798102717546), (57.79675046086379, 68.01331726071689), (81.77962421911303, 89.7043259377152), (125.62367070663939, -19.177587600496917), (154.9063969169841, -33.840516367504634), (-21.71666859466247, -77.25380898295516), (-35.85607133573312, -121.71998986902207), (-125.789876880304, -92.33976797281974), (-195.3986410233664, -110.55548626974044), (100.70832889380661, 80.27405617559155), (143.7610636934514, 126.16343951291428), (48.000823016044514, 110.46157821941793), (58.97393165320047, 161.2970595748078), (-81.85146211066605, 14.290069709106918), (-118.9531723573568, 6.862066040821112), (-176.87165198211966, 101.35647664692459), (-242.30941806519695, 154.91295924008915), (-66.01660908326318, -81.77073435880138), (-87.29700252244733, -103.34479463943921)]",0,radial,85.1,467.7,9.31,12.52,0.0855,4,,,,,0,0,0,0,,,,,0,19,19,15,,,,,,,,,,,,,,,space,1.0586638003587723,,,,,53,,,,,,,,,,,,,,,,,,,,,,,,,,,425.55660440027714,None,,,,,,,,,11,19,Prefer not to say,2021_Dec_15_1015,uniform_mix,2021.2.3,60.50020348930023,
c4_mix_ref.xlsx,c4_mix_t.xlsx,c4_mix.xlsx,stims/contrast73.png,,73,2269,0.4,34,"[(80.0, -120.0), (90.0, 80.0), (-70.0, -100.0), (-160.0, 50.0), (150.0, -120.0), (100.0, 0.0), (-100.0, -10.0), (0.0, -110.0), (0.0, 120.0), (160.0, 70.0), (120.0, -50.0), (50.0, 130.0), (-100.0, 60.0), (-170.0, -90.0), (-80.0, 130.0), (190.0, -20.0), (-170.0, 130.0), (129.80549538906786, -30.792665263709182), (-186.95014673136583, -54.29280217685556), (-147.5003075711972, -128.46157300967883), (-158.48389859233495, 164.00709320178356), (-201.92851527165004, 100.80074463396659), (-85.8153679065349, 69.07823566383696), (-105.8100688166819, 39.14560615345047), (11.889765577771527, 128.82557562676865), (-21.967893477602544, 119.32517754532107), (200.34755237635585, -48.16527162224861), (204.9297616259458, 5.781013896848947), (78.57203597529757, 116.360595753045), (33.86379138023926, 136.75973251758734), (-53.033372560445216, 144.3293481970871), (-97.02025996827837, 111.5719055880327), (176.98546611155246, 52.71537462768882), (142.17099384503177, 81.17118362916938)]","[(80.0, -120.0), (90.0, 80.0), (-70.0, -100.0), (-160.0, 50.0), (150.0, -120.0), (100.0, 0.0), (-100.0, -10.0), (0.0, -110.0), (0.0, 120.0), (160.0, 70.0), (120.0, -50.0), (50.0, 130.0), (-100.0, 60.0), (-170.0, -90.0), (-80.0, 130.0), (190.0, -20.0), (-170.0, 130.0)]","[(129.80549538906786, -30.792665263709182), (-186.95014673136583, -54.29280217685556), (-147.5003075711972, -128.46157300967883), (-158.48389859233495, 164.00709320178356), (-201.92851527165004, 100.80074463396659), (-85.8153679065349, 69.07823566383696), (-105.8100688166819, 39.14560615345047), (11.889765577771527, 128.82557562676865), (-21.967893477602544, 119.32517754532107), (200.34755237635585, -48.16527162224861), (204.9297616259458, 5.781013896848947), (78.57203597529757, 116.360595753045), (33.86379138023926, 136.75973251758734), (-53.033372560445216, 144.3293481970871), (-97.02025996827837, 111.5719055880327), (176.98546611155246, 52.71537462768882), (142.17099384503177, 81.17118362916938)]",0,tangential,76.71,404.58,10.17,13.22,0.084,1,,,,,0,0,0,0,,,,,0,20,20,72,,,,,,,,,,,,,,,space,1.1871098997071385,,,,,48,,,,,,,,,,,,,,,,,,,,,,,,,,,430.1062408001162,None,,,,,,,,,11,19,Prefer not to say,2021_Dec_15_1015,uniform_mix,2021.2.3,60.50020348930023,
c4_mix_ref.xlsx,c4_mix_t.xlsx,c4_mix.xlsx,stims/contrast66.png,,66,1395,0.4,42,"[(0.0, 140.0), (-130.0, 30.0), (100.0, 110.0), (150.0, 50.0), (-100.0, -30.0), (-50.0, -110.0), (90.0, 50.0), (40.0, 110.0), (-80.0, 60.0), (-120.0, -80.0), (70.0, -110.0), (80.0, -60.0), (-120.0, 120.0), (160.0, -90.0), (200.0, -10.0), (190.0, 120.0), (-40.0, 110.0), (10.0, -120.0), (-200.0, 100.0), (-200.0, -70.0), (110.0, 0.0), (-10.009679235210328, 119.16132521265428), (-106.16446901649553, 16.730598207486324), (83.45171223835797, 88.38575986635871), (117.75876669690336, 38.621576203249084), (-89.31052991357927, -20.99342276189603), (-42.696050892554894, -92.26355555084307), (73.47399389122383, 35.76596098009109), (29.29325989321627, 91.74567234746145), (-62.978112283615786, 51.78093834042561), (-103.81174278666762, -60.22718287809751), (89.88771844799905, -130.16534560593945), (85.4827310631756, -71.60827133846081), (-149.41718562078785, 143.18263095536963), (188.95082886292562, -115.01777364395471), (221.17325983388523, 6.892803706817183), (221.45170356588517, 128.10954237888922), (-47.01879987082195, 120.87751659895318), (17.617816987520975, -146.08833543434804), (-224.9269532858484, 99.5304082875889), (-236.5405352620823, -94.77580530549066), (121.83056737965097, -5.65569123339257)]","[(0.0, 140.0), (-130.0, 30.0), (100.0, 110.0), (150.0, 50.0), (-100.0, -30.0), (-50.0, -110.0), (90.0, 50.0), (40.0, 110.0), (-80.0, 60.0), (-120.0, -80.0), (70.0, -110.0), (80.0, -60.0), (-120.0, 120.0), (160.0, -90.0), (200.0, -10.0), (190.0, 120.0), (-40.0, 110.0), (10.0, -120.0), (-200.0, 100.0), (-200.0, -70.0), (110.0, 0.0)]","[(-10.009679235210328, 119.16132521265428), (-106.16446901649553, 16.730598207486324), (83.45171223835797, 88.38575986635871), (117.75876669690336, 38.621576203249084), (-89.31052991357927, -20.99342276189603), (-42.696050892554894, -92.26355555084307), (73.47399389122383, 35.76596098009109), (29.29325989321627, 91.74567234746145), (-62.978112283615786, 51.78093834042561), (-103.81174278666762, -60.22718287809751), (89.88771844799905, -130.16534560593945), (85.4827310631756, -71.60827133846081), (-149.41718562078785, 143.18263095536963), (188.95082886292562, -115.01777364395471), (221.17325983388523, 6.892803706817183), (221.45170356588517, 128.10954237888922), (-47.01879987082195, 120.87751659895318), (17.617816987520975, -146.08833543434804), (-224.9269532858484, 99.5304082875889), (-236.5405352620823, -94.77580530549066), (121.83056737965097, -5.65569123339257)]",1,radial,87.29,491.41,9.63,13.08,0.0855,2,,,,,0,0,0,0,,,,,0,21,21,65,,,,,,,,,,,,,,,space,0.7852974999696016,,,,,26,,,,,,,,,,,,,,,,,,,,,,,,,,,435.57229480007663,None,,,,,,,,,11,19,Prefer not to say,2021_Dec_15_1015,uniform_mix,2021.2.3,60.50020348930023,
c4_mix_ref.xlsx,c4_mix_t.xlsx,c4_mix.xlsx,stims/contrast62.png,,62,475,0.4,40,"[(-60.0, 80.0), (-60.0, 140.0), (110.0, 50.0), (-100.0, 20.0), (170.0, 100.0), (100.0, -20.0), (70.0, 110.0), (120.0, -70.0), (160.0, 10.0), (-90.0, -50.0), (-170.0, -90.0), (-150.0, -20.0), (0.0, 100.0), (200.0, -60.0), (-30.0, -110.0), (-90.0, -120.0), (110.0, -140.0), (-190.0, 50.0), (40.0, -100.0), (-130.0, 100.0), (-45.61634278768709, 70.06387682653306), (-55.555407378846084, 121.91181147285616), (95.75666865185396, 45.026348216123196), (-76.81376262910146, 17.8477172351597), (144.25561379293754, 75.35984788859598), (76.5141994772795, -17.92120244847539), (53.96284475327593, 95.00386889380248), (98.28669839350168, -62.48701856685605), (134.73278957381797, 19.915200093671192), (-73.30014316737453, -36.57717704589794), (-192.1465021248101, -115.26965036327255), (-164.21768080899705, -32.06807376693927), (-4.142592372563444, 116.13773316738036), (248.15123244907258, -74.99472978584595), (-37.13878440964251, -128.16451246645548), (-100.74742827562854, -142.58644052160705), (135.90417087660657, -169.67686987184445), (-218.7518161628372, 53.41198180025733), (48.75489056128928, -122.33169490843194), (-149.91342377356779, 116.31737105200509)]","[(-60.0, 80.0), (-60.0, 140.0), (110.0, 50.0), (-100.0, 20.0), (170.0, 100.0), (100.0, -20.0), (70.0, 110.0), (120.0, -70.0), (160.0, 10.0), (-90.0, -50.0), (-170.0, -90.0), (-150.0, -20.0), (0.0, 100.0), (200.0, -60.0), (-30.0, -110.0), (-90.0, -120.0), (110.0, -140.0), (-190.0, 50.0), (40.0, -100.0), (-130.0, 100.0)]","[(-45.61634278768709, 70.06387682653306), (-55.555407378846084, 121.91181147285616), (95.75666865185396, 45.026348216123196), (-76.81376262910146, 17.8477172351597), (144.25561379293754, 75.35984788859598), (76.5141994772795, -17.92120244847539), (53.96284475327593, 95.00386889380248), (98.28669839350168, -62.48701856685605), (134.73278957381797, 19.915200093671192), (-73.30014316737453, -36.57717704589794), (-192.1465021248101, -115.26965036327255), (-164.21768080899705, -32.06807376693927), (-4.142592372563444, 116.13773316738036), (248.15123244907258, -74.99472978584595), (-37.13878440964251, -128.16451246645548), (-100.74742827562854, -142.58644052160705), (135.90417087660657, -169.67686987184445), (-218.7518161628372, 53.41198180025733), (48.75489056128928, -122.33169490843194), (-149.91342377356779, 116.31737105200509)]",1,radial,82.63,467.84,9.48,12.9,0.0855,2,,,,,0,0,0,0,,,,,0,22,22,61,,,,,,,,,,,,,,,space,0.7460723998956382,,,,,28,,,,,,,,,,,,,,,,,,,,,,,,,,,441.4987119999714,None,,,,,,,,,11,19,Prefer not to say,2021_Dec_15_1015,uniform_mix,2021.2.3,60.50020348930023,
c4_mix_ref.xlsx,c4_mix_t.xlsx,c4_mix.xlsx,stims/contrast93.png,,93,2316,0.4,44,"[(90.0, -140.0), (110.0, 10.0), (-180.0, -20.0), (80.0, -80.0), (-130.0, 60.0), (100.0, 90.0), (200.0, 20.0), (-90.0, 130.0), (20.0, 110.0), (-110.0, -110.0), (70.0, 140.0), (190.0, 130.0), (-60.0, -90.0), (-10.0, -100.0), (-170.0, 140.0), (-40.0, -140.0), (-200.0, -130.0), (-80.0, 60.0), (-100.0, -20.0), (30.0, -120.0), (150.0, -80.0), (-30.0, 100.0), (-76.79721642535354, -82.28022006494116), (-46.35533148105546, -92.78155956930085), (130.2400518899031, -90.57784187707946), (148.48134920225925, -55.64003525291639), (-235.96935893783484, -100.9504760621908), (-185.77689332119266, -166.01448199046408), (-23.809640680449803, -92.38209762839548), (-0.2487437986256964, -106.09881753580564), (12.1299456152515, -132.747308371481), (44.078711557604976, -114.32371246613302), (-57.30309504713024, -146.44078239614532), (-26.872272853563885, -153.8561494006977), (-97.29718965432639, -5.6764970688388985), (-96.15348714530455, -34.73229582553836), (-17.741708397496836, 101.53006500586058), (-54.84695494573634, 94.10582922357416), (206.0058093081887, 93.49549083957368), (161.54914824237736, 178.39711598766814), (-64.93495141508647, 78.02651619544562), (-90.0879623728425, 44.87233840228231), (-147.06417914804493, 158.78930940409015), (-180.29581612547236, 114.71844192683704)]","[(90.0, -140.0), (110.0, 10.0), (-180.0, -20.0), (80.0, -80.0), (-130.0, 60.0), (100.0, 90.0), (200.0, 20.0), (-90.0, 130.0), (20.0, 110.0), (-110.0, -110.0), (70.0, 140.0), (190.0, 130.0), (-60.0, -90.0), (-10.0, -100.0), (-170.0, 140.0), (-40.0, -140.0), (-200.0, -130.0), (-80.0, 60.0), (-100.0, -20.0), (30.0, -120.0), (150.0, -80.0), (-30.0, 100.0)]","[(-76.79721642535354, -82.28022006494116), (-46.35533148105546, -92.78155956930085), (130.2400518899031, -90.57784187707946), (148.48134920225925, -55.64003525291639), (-235.96935893783484, -100.9504760621908), (-185.77689332119266, -166.01448199046408), (-23.809640680449803, -92.38209762839548), (-0.2487437986256964, -106.09881753580564), (12.1299456152515, -132.747308371481), (44.078711557604976, -114.32371246613302), (-57.30309504713024, -146.44078239614532), (-26.872272853563885, -153.8561494006977), (-97.29718965432639, -5.6764970688388985), (-96.15348714530455, -34.73229582553836), (-17.741708397496836, 101.53006500586058), (-54.84695494573634, 94.10582922357416), (206.0058093081887, 93.49549083957368), (161.54914824237736, 178.39711598766814), (-64.93495141508647, 78.02651619544562), (-90.0879623728425, 44.87233840228231), (-147.06417914804493, 158.78930940409015), (-180.29581612547236, 114.71844192683704)]",0,tangential,86.03,515.56,9.81,13.15,0.0853,1,,,,,0,0,0,0,,,,,0,23,23,92,,,,,,,,,,,,,,,space,0.6282049999572337,,,,,37,,,,,,,,,,,,,,,,,,,,,,,,,,,445.3309808000922,None,,,,,,,,,11,19,Prefer not to say,2021_Dec_15_1015,uniform_mix,2021.2.3,60.50020348930023,
c4_mix_ref.xlsx,c4_mix_t.xlsx,c4_mix.xlsx,stims/contrast86.png,,86,239,0.4,40,"[(190.0, -140.0), (90.0, 100.0), (-120.0, -80.0), (30.0, 130.0), (-50.0, -110.0), (-170.0, 10.0), (-190.0, -60.0), (150.0, 20.0), (100.0, 50.0), (-100.0, 120.0), (-190.0, 110.0), (-40.0, 130.0), (200.0, -40.0), (190.0, 110.0), (-10.0, -140.0), (90.0, -120.0), (-100.0, -20.0), (-110.0, 30.0), (110.0, -30.0), (40.0, -100.0), (-105.21690646508748, -1.8606954608798532), (-102.14216892044797, -36.16226136380919), (63.13676163880152, -130.62683866146992), (111.45814543930322, -112.34521199707024), (-103.90032430924742, 42.98732242067982), (-119.70128718365898, 4.022576835962781), (-183.95350589336653, 147.1223876154523), (-208.66208786634257, 70.01337533996355), (19.66931691634224, -101.74077110418713), (60.44281653327836, -91.07957998334467), (-17.075242129543597, 137.04616881919318), (-67.44211781030037, 127.74685977810847), (-35.991559496095235, -132.98665854882617), (21.89197481217741, -144.73343813978155), (184.3150735297279, -85.79967228506442), (217.89471420020686, -14.52552860100917), (218.67749620078078, 64.13318640516977), (169.23419265408643, 149.1644191291462), (108.60703615020215, -51.55390635760591), (114.0334055448894, -9.20199723952517)]","[(190.0, -140.0), (90.0, 100.0), (-120.0, -80.0), (30.0, 130.0), (-50.0, -110.0), (-170.0, 10.0), (-190.0, -60.0), (150.0, 20.0), (100.0, 50.0), (-100.0, 120.0), (-190.0, 110.0), (-40.0, 130.0), (200.0, -40.0), (190.0, 110.0), (-10.0, -140.0), (90.0, -120.0), (-100.0, -20.0), (-110.0, 30.0), (110.0, -30.0), (40.0, -100.0)]","[(-105.21690646508748, -1.8606954608798532), (-102.14216892044797, -36.16226136380919), (63.13676163880152, -130.62683866146992), (111.45814543930322, -112.34521199707024), (-103.90032430924742, 42.98732242067982), (-119.70128718365898, 4.022576835962781), (-183.95350589336653, 147.1223876154523), (-208.66208786634257, 70.01337533996355), (19.66931691634224, -101.74077110418713), (60.44281653327836, -91.07957998334467), (-17.075242129543597, 137.04616881919318), (-67.44211781030037, 127.74685977810847), (-35.991559496095235, -132.98665854882617), (21.89197481217741, -144.73343813978155), (184.3150735297279, -85.79967228506442), (217.89471420020686, -14.52552860100917), (218.67749620078078, 64.13318640516977), (169.23419265408643, 149.1644191291462), (108.60703615020215, -51.55390635760591), (114.0334055448894, -9.20199723952517)]",0,tangential,83.04,467.72,10.08,13.51,0.0855,2,,,,,0,0,0,0,,,,,0,24,24,85,,,,,,,,,,,,,,,space,0.8891072003170848,,,,,36,,,,,,,,,,,,,,,,,,,,,,,,,,,449.7851668000221,None,,,,,,,,,11,19,Prefer not to say,2021_Dec_15_1015,uniform_mix,2021.2.3,60.50020348930023,
c4_mix_ref.xlsx,c4_mix_t.xlsx,c4_mix.xlsx,stims/contrast101.png,,101,541,0.4,36,"[(-100.0, -20.0), (-80.0, -70.0), (100.0, -30.0), (200.0, -110.0), (190.0, 110.0), (-160.0, 90.0), (-90.0, 80.0), (-140.0, 20.0), (10.0, 100.0), (-180.0, -70.0), (-80.0, -130.0), (140.0, 10.0), (100.0, 70.0), (100.0, -80.0), (40.0, -130.0), (80.0, 120.0), (-60.0, 130.0), (-20.0, -110.0), (-143.0296824725201, 112.9993700745382), (-185.1492939941591, -37.87991491876738), (-47.75215457659773, 145.60048046456308), (136.91134336511703, -16.76758729477652), (98.16737298754164, 106.03328626527113), (5.730982455077637, -117.45992386381428), (-2.553551588111816, 108.23160631626601), (-70.94892634453026, -148.63117309356252), (115.68865921271062, -71.47165011793132), (-148.86469375805473, -3.3737221909403274), (30.301167183732417, -145.5165230849738), (58.30060836717537, -116.55334251183092), (-74.03686215127726, 95.12754399574604), (-92.30076976864558, 63.02052269663167), (207.1440184318737, 94.37110957387813), (161.52977008848953, 140.686668644265), (114.23305843034892, 59.43485461449184), (84.38566139475023, 87.37946684989971)]","[(-100.0, -20.0), (-80.0, -70.0), (100.0, -30.0), (200.0, -110.0), (190.0, 110.0), (-160.0, 90.0), (-90.0, 80.0), (-140.0, 20.0), (10.0, 100.0), (-180.0, -70.0), (-80.0, -130.0), (140.0, 10.0), (100.0, 70.0), (100.0, -80.0), (40.0, -130.0), (80.0, 120.0), (-60.0, 130.0), (-20.0, -110.0)]","[(-143.0296824725201, 112.9993700745382), (-185.1492939941591, -37.87991491876738), (-47.75215457659773, 145.60048046456308), (136.91134336511703, -16.76758729477652), (98.16737298754164, 106.03328626527113), (5.730982455077637, -117.45992386381428), (-2.553551588111816, 108.23160631626601), (-70.94892634453026, -148.63117309356252), (115.68865921271062, -71.47165011793132), (-148.86469375805473, -3.3737221909403274), (30.301167183732417, -145.5165230849738), (58.30060836717537, -116.55334251183092), (-74.03686215127726, 95.12754399574604), (-92.30076976864558, 63.02052269663167), (207.1440184318737, 94.37110957387813), (161.52977008848953, 140.686668644265), (114.23305843034892, 59.43485461449184), (84.38566139475023, 87.37946684989971)]",0.5,tangential,77.23,423.34,9.57,12.82,0.085,1,,,,,0,0,0,0,,,,,0,25,25,100,,,,,,,,,,,,,,,space,0.9933199998922646,,,,,28,,,,,,,,,,,,,,,,,,,,,,,,,,,456.2426391001791,None,,,,,,,,,11,19,Prefer not to say,2021_Dec_15_1015,uniform_mix,2021.2.3,60.50020348930023,
c4_mix_ref.xlsx,c4_mix_t.xlsx,c4_mix.xlsx,stims/contrast107.png,,107,1244,0.4,38,"[(-130.0, -30.0), (150.0, 130.0), (0.0, 140.0), (120.0, -110.0), (-70.0, -100.0), (-190.0, 140.0), (-10.0, -110.0), (40.0, -120.0), (100.0, 60.0), (200.0, -90.0), (40.0, 100.0), (160.0, 60.0), (-180.0, -80.0), (110.0, -30.0), (-200.0, 40.0), (-100.0, 70.0), (-100.0, 10.0), (80.0, 140.0), (-70.0, 120.0), (-26.32867635278714, -116.08258059179157), (51.97333754835731, 97.42271595041605), (-207.71103199515235, 69.44191348309803), (-85.15544201577598, -97.18976847087265), (108.21327088853732, -49.71071196113378), (-93.77857969481785, -0.4983999979665157), (83.98114268574884, 71.32718916771437), (219.5127283827259, -71.34214649692618), (-113.86185874911406, 51.86358731539721), (70.71622679619168, 155.5453169147203), (-183.59517675907486, -108.28642490141567), (-57.06591684651295, 136.6611189380971), (-88.62259195921398, 100.88483530333696), (-163.8792201415186, 168.0946368111814), (-220.01278473639806, 94.11880645204553), (16.787431195047432, -121.17966594261594), (65.35397630032051, -110.87697497790353), (179.2596012595394, 46.931371411406445), (139.36968384294678, 80.4504111141998)]","[(-130.0, -30.0), (150.0, 130.0), (0.0, 140.0), (120.0, -110.0), (-70.0, -100.0), (-190.0, 140.0), (-10.0, -110.0), (40.0, -120.0), (100.0, 60.0), (200.0, -90.0), (40.0, 100.0), (160.0, 60.0), (-180.0, -80.0), (110.0, -30.0), (-200.0, 40.0), (-100.0, 70.0), (-100.0, 10.0), (80.0, 140.0), (-70.0, 120.0)]","[(-26.32867635278714, -116.08258059179157), (51.97333754835731, 97.42271595041605), (-207.71103199515235, 69.44191348309803), (-85.15544201577598, -97.18976847087265), (108.21327088853732, -49.71071196113378), (-93.77857969481785, -0.4983999979665157), (83.98114268574884, 71.32718916771437), (219.5127283827259, -71.34214649692618), (-113.86185874911406, 51.86358731539721), (70.71622679619168, 155.5453169147203), (-183.59517675907486, -108.28642490141567), (-57.06591684651295, 136.6611189380971), (-88.62259195921398, 100.88483530333696), (-163.8792201415186, 168.0946368111814), (-220.01278473639806, 94.11880645204553), (16.787431195047432, -121.17966594261594), (65.35397630032051, -110.87697497790353), (179.2596012595394, 46.931371411406445), (139.36968384294678, 80.4504111141998)]",0.5,tangential,81.43,444.31,10.12,13.56,0.0855,3,,,,,0,0,0,0,,,,,0,26,26,106,,,,,,,,,,,,,,,space,0.6081934999674559,,,,,26,,,,,,,,,,,,,,,,,,,,,,,,,,,460.588567300234,None,,,,,,,,,11,19,Prefer not to say,2021_Dec_15_1015,uniform_mix,2021.2.3,60.50020348930023,
c4_mix_ref.xlsx,c4_mix_t.xlsx,c4_mix.xlsx,stims/contrast123.png,,123,3796,0.4,34,"[(-120.0, -20.0), (-170.0, 30.0), (-150.0, 130.0), (140.0, -100.0), (130.0, 100.0), (-10.0, 100.0), (-100.0, 50.0), (90.0, 50.0), (60.0, 130.0), (30.0, -140.0), (-180.0, -120.0), (-60.0, 120.0), (80.0, -90.0), (-100.0, -100.0), (120.0, 0.0), (200.0, 20.0), (-20.0, -120.0), (-117.76181707984952, -0.8069498233695924), (-165.93698617175795, 61.39304259538673), (-125.73224763328156, 141.6204497462468), (138.94103550484635, -124.81146420788237), (134.56732824159317, 79.26000356445249), (1.3365252560164151, 106.08377002663988), (-85.30071485853644, 71.81885943004765), (92.93547397768468, 31.750412583422133), (48.63536329551059, 146.05334437934812), (45.627775159181795, -125.61343016556701), (-176.6907820716017, -144.20287056484298), (-73.48882457436338, 108.41427725660107), (83.38371469951994, -75.00148209996694), (-89.56212584130964, -116.05164416063224), (127.50241493367143, 21.70820609037372), (210.82065986478042, 53.33133656098579), (-2.240846547708003, -125.50484513826378)]","[(-120.0, -20.0), (-170.0, 30.0), (-150.0, 130.0), (140.0, -100.0), (130.0, 100.0), (-10.0, 100.0), (-100.0, 50.0), (90.0, 50.0), (60.0, 130.0), (30.0, -140.0), (-180.0, -120.0), (-60.0, 120.0), (80.0, -90.0), (-100.0, -100.0), (120.0, 0.0), (200.0, 20.0), (-20.0, -120.0)]","[(-117.76181707984952, -0.8069498233695924), (-165.93698617175795, 61.39304259538673), (-125.73224763328156, 141.6204497462468), (138.94103550484635, -124.81146420788237), (134.56732824159317, 79.26000356445249), (1.3365252560164151, 106.08377002663988), (-85.30071485853644, 71.81885943004765), (92.93547397768468, 31.750412583422133), (48.63536329551059, 146.05334437934812), (45.627775159181795, -125.61343016556701), (-176.6907820716017, -144.20287056484298), (-73.48882457436338, 108.41427725660107), (83.38371469951994, -75.00148209996694), (-89.56212584130964, -116.05164416063224), (127.50241493367143, 21.70820609037372), (210.82065986478042, 53.33133656098579), (-2.240846547708003, -125.50484513826378)]",1,tangential,76.83,397.81,9.64,12.97,0.0855,3,,,,,0,0,0,0,,,,,0,27,27,122,,,,,,,,,,,,,,,space,0.6640107999555767,,,,,21,,,,,,,,,,,,,,,,,,,,,,,,,,,465.0360002000816,None,,,,,,,,,11,19,Prefer not to say,2021_Dec_15_1015,uniform_mix,2021.2.3,60.50020348930023,
c4_mix_ref.xlsx,c4_mix_t.xlsx,c4_mix.xlsx,stims/contrast29.png,,29,3003,0.4,36,"[(-80.0, -60.0), (-170.0, 60.0), (100.0, -40.0), (30.0, 140.0), (-130.0, -130.0), (200.0, 60.0), (-80.0, 100.0), (-50.0, -120.0), (-140.0, -60.0), (130.0, 10.0), (-20.0, 120.0), (90.0, 90.0), (120.0, -100.0), (-150.0, 140.0), (50.0, -100.0), (-110.0, 10.0), (200.0, -90.0), (0.0, -100.0), (-62.46903512814519, 92.18356793676686), (101.19035349367766, -77.07015368756393), (-106.06245039777659, -44.69245467792811), (-35.04272212249733, -104.66327814743529), (-130.41778199518666, 117.89781088223783), (152.8235870725661, 16.20138162019716), (-134.21674478619863, 14.201281329323557), (62.667412273023366, -117.94417341328312), (-18.64742803064574, 134.07089484536982), (-139.2179437303501, -147.102364793118), (151.83055388877975, 45.899413576089906), (239.45523635822877, 71.37439921155286), (4.020287897807137, -87.462124778026), (-4.067606375647079, -117.98305833169451), (179.83176809631902, -66.32345234589994), (230.46227946024806, -112.48109761508054), (70.11454055811402, 68.5982974633715), (93.66581558971087, 106.26452068674983)]","[(-80.0, -60.0), (-170.0, 60.0), (100.0, -40.0), (30.0, 140.0), (-130.0, -130.0), (200.0, 60.0), (-80.0, 100.0), (-50.0, -120.0), (-140.0, -60.0), (130.0, 10.0), (-20.0, 120.0), (90.0, 90.0), (120.0, -100.0), (-150.0, 140.0), (50.0, -100.0), (-110.0, 10.0), (200.0, -90.0), (0.0, -100.0)]","[(-62.46903512814519, 92.18356793676686), (101.19035349367766, -77.07015368756393), (-106.06245039777659, -44.69245467792811), (-35.04272212249733, -104.66327814743529), (-130.41778199518666, 117.89781088223783), (152.8235870725661, 16.20138162019716), (-134.21674478619863, 14.201281329323557), (62.667412273023366, -117.94417341328312), (-18.64742803064574, 134.07089484536982), (-139.2179437303501, -147.102364793118), (151.83055388877975, 45.899413576089906), (239.45523635822877, 71.37439921155286), (4.020287897807137, -87.462124778026), (-4.067606375647079, -117.98305833169451), (179.83176809631902, -66.32345234589994), (230.46227946024806, -112.48109761508054), (70.11454055811402, 68.5982974633715), (93.66581558971087, 106.26452068674983)]",0.5,radial,81.65,423.35,9.67,12.99,0.085,1,,,,,0,0,0,0,,,,,0,28,28,28,,,,,,,,,,,,,,,space,1.0583537998609245,,,,,23,,,,,,,,,,,,,,,,,,,,,,,,,,,469.9792508999817,None,,,,,,,,,11,19,Prefer not to say,2021_Dec_15_1015,uniform_mix,2021.2.3,60.50020348930023,
c4_mix_ref.xlsx,c4_mix_t.xlsx,c4_mix.xlsx,stims/contrast98.png,,98,1993,0.4,34,"[(180.0, 40.0), (170.0, 140.0), (190.0, -90.0), (-120.0, 50.0), (0.0, 110.0), (110.0, -120.0), (-150.0, -90.0), (-60.0, -100.0), (90.0, 100.0), (-160.0, -10.0), (0.0, -130.0), (120.0, -40.0), (-100.0, -40.0), (100.0, 20.0), (-60.0, 120.0), (40.0, -100.0), (-170.0, 130.0), (18.097749020192794, -108.9692930764945), (-22.89561687580212, -124.76476935107387), (-136.13879667633853, 169.83769927678117), (-173.07734031181397, -61.934877502498324), (-86.21175254370606, -53.26953861634183), (-17.53399373644207, 118.25120234873108), (-157.04763286491124, -42.667573386466074), (133.06698758910684, -30.586139016515844), (121.3984878952631, -96.38622508790527), (101.77459406407051, 7.619460856261654), (97.05863310198923, 36.20890764696445), (-64.81664229040862, -86.14860836783244), (-44.79822780950026, -113.42589831749548), (110.48362084153953, 94.74921206479692), (75.58730336650709, 116.24112627427789), (-44.942493690093244, 121.28761602511383), (-81.12381795392902, 115.77130312048916)]","[(180.0, 40.0), (170.0, 140.0), (190.0, -90.0), (-120.0, 50.0), (0.0, 110.0), (110.0, -120.0), (-150.0, -90.0), (-60.0, -100.0), (90.0, 100.0), (-160.0, -10.0), (0.0, -130.0), (120.0, -40.0), (-100.0, -40.0), (100.0, 20.0), (-60.0, 120.0), (40.0, -100.0), (-170.0, 130.0)]","[(18.097749020192794, -108.9692930764945), (-22.89561687580212, -124.76476935107387), (-136.13879667633853, 169.83769927678117), (-173.07734031181397, -61.934877502498324), (-86.21175254370606, -53.26953861634183), (-17.53399373644207, 118.25120234873108), (-157.04763286491124, -42.667573386466074), (133.06698758910684, -30.586139016515844), (121.3984878952631, -96.38622508790527), (101.77459406407051, 7.619460856261654), (97.05863310198923, 36.20890764696445), (-64.81664229040862, -86.14860836783244), (-44.79822780950026, -113.42589831749548), (110.48362084153953, 94.74921206479692), (75.58730336650709, 116.24112627427789), (-44.942493690093244, 121.28761602511383), (-81.12381795392902, 115.77130312048916)]",0.5,tangential,76.58,401.43,9.3,12.51,0.0847,2,,,,,0,0,0,0,,,,,0,29,29,97,,,,,,,,,,,,,,,space,0.9436758998781443,,,,,28,,,,,,,,,,,,,,,,,,,,,,,,,,,474.017405600287,None,,,,,,,,,11,19,Prefer not to say,2021_Dec_15_1015,uniform_mix,2021.2.3,60.50020348930023,
c4_mix_ref.xlsx,c4_mix_t.xlsx,c4_mix.xlsx,stims/contrast134.png,,134,1320,0.4,40,"[(-90.0, -50.0), (-70.0, -140.0), (120.0, 40.0), (200.0, -90.0), (-180.0, 60.0), (-160.0, -10.0), (100.0, 100.0), (100.0, -10.0), (-160.0, -110.0), (20.0, -140.0), (190.0, 130.0), (20.0, 110.0), (-170.0, 140.0), (140.0, -40.0), (190.0, 30.0), (50.0, -90.0), (100.0, -100.0), (-100.0, 50.0), (-20.0, -100.0), (-60.0, 110.0), (-103.05441582706598, -29.18875171115438), (-91.11378019015197, -134.04881323685203), (129.32758971292444, 18.71181774203788), (190.9535581773957, -125.80857347786883), (-176.75647932883, 99.89259625957786), (-148.53918511607992, 6.9161107345618404), (119.50367352476641, 98.15055006250242), (105.74831615659485, -26.945559896162138), (-183.33718758544063, -94.59602410822419), (6.454619813459459, -148.05667526988162), (167.18937449623883, 165.88800172559695), (2.0388574637097037, 116.56119895564014), (-196.10891681242254, 101.48761603739405), (139.3196841644646, -16.738743238164687), (174.279025992402, 59.45973562369582), (66.76574080679892, -80.93326196180523), (115.98817585842993, -94.71904968710615), (-107.75421600149869, 35.901576663919755), (-3.418798985960791, -106.90302269075472), (-87.5439764659555, 99.31283535848681)]","[(-90.0, -50.0), (-70.0, -140.0), (120.0, 40.0), (200.0, -90.0), (-180.0, 60.0), (-160.0, -10.0), (100.0, 100.0), (100.0, -10.0), (-160.0, -110.0), (20.0, -140.0), (190.0, 130.0), (20.0, 110.0), (-170.0, 140.0), (140.0, -40.0), (190.0, 30.0), (50.0, -90.0), (100.0, -100.0), (-100.0, 50.0), (-20.0, -100.0), (-60.0, 110.0)]","[(-103.05441582706598, -29.18875171115438), (-91.11378019015197, -134.04881323685203), (129.32758971292444, 18.71181774203788), (190.9535581773957, -125.80857347786883), (-176.75647932883, 99.89259625957786), (-148.53918511607992, 6.9161107345618404), (119.50367352476641, 98.15055006250242), (105.74831615659485, -26.945559896162138), (-183.33718758544063, -94.59602410822419), (6.454619813459459, -148.05667526988162), (167.18937449623883, 165.88800172559695), (2.0388574637097037, 116.56119895564014), (-196.10891681242254, 101.48761603739405), (139.3196841644646, -16.738743238164687), (174.279025992402, 59.45973562369582), (66.76574080679892, -80.93326196180523), (115.98817585842993, -94.71904968710615), (-107.75421600149869, 35.901576663919755), (-3.418798985960791, -106.90302269075472), (-87.5439764659555, 99.31283535848681)]",1,tangential,82.88,467.68,10.01,13.43,0.0855,2,,,,,0,0,0,0,,,,,0,30,30,133,,,,,,,,,,,,,,,space,1.396401799749583,,,,,29,,,,,,,,,,,,,,,,,,,,,,,,,,,478.9198552002199,None,,,,,,,,,11,19,Prefer not to say,2021_Dec_15_1015,uniform_mix,2021.2.3,60.50020348930023,
c4_mix_ref.xlsx,c4_mix_t.xlsx,c4_mix.xlsx,stims/contrast13.png,,13,33,0.4,40,"[(-60.0, 90.0), (160.0, 0.0), (-110.0, -40.0), (-50.0, -90.0), (100.0, 10.0), (-130.0, 100.0), (120.0, -70.0), (0.0, -110.0), (200.0, -80.0), (-190.0, -100.0), (-110.0, 20.0), (-120.0, -140.0), (-10.0, 110.0), (-170.0, -20.0), (70.0, 120.0), (80.0, 60.0), (170.0, 110.0), (-200.0, 50.0), (60.0, -80.0), (110.0, -140.0), (56.09908303838587, -62.99931327257086), (74.37473774643442, -89.73140848292329), (55.643038727022756, 104.34146394821387), (73.12783580947963, 139.7118430987558), (65.58929743291861, 48.86704222428322), (95.18370351265236, 64.58879595417156), (-173.09484222106977, 46.310990667246095), (-241.91652286439597, 66.51704921991477), (-105.16283605766898, -107.37063768226764), (-142.29835273902563, -164.5518689058551), (132.46117361814785, 89.0818621853264), (199.25572814945022, 125.17455223371334), (87.34013154215911, -128.711688068959), (133.5485728199909, -153.7335690135599), (-151.13872311178653, -28.677828917679143), (-189.75634569088842, -29.6029645439884), (-92.66255055407055, 13.631278240754085), (-134.9949139257636, 28.302316388502625), (-9.791474631399328, 89.1971100809169), (-11.981060180592303, 121.78529686725663)]","[(-60.0, 90.0), (160.0, 0.0), (-110.0, -40.0), (-50.0, -90.0), (100.0, 10.0), (-130.0, 100.0), (120.0, -70.0), (0.0, -110.0), (200.0, -80.0), (-190.0, -100.0), (-110.0, 20.0), (-120.0, -140.0), (-10.0, 110.0), (-170.0, -20.0), (70.0, 120.0), (80.0, 60.0), (170.0, 110.0), (-200.0, 50.0), (60.0, -80.0), (110.0, -140.0)]","[(56.09908303838587, -62.99931327257086), (74.37473774643442, -89.73140848292329), (55.643038727022756, 104.34146394821387), (73.12783580947963, 139.7118430987558), (65.58929743291861, 48.86704222428322), (95.18370351265236, 64.58879595417156), (-173.09484222106977, 46.310990667246095), (-241.91652286439597, 66.51704921991477), (-105.16283605766898, -107.37063768226764), (-142.29835273902563, -164.5518689058551), (132.46117361814785, 89.0818621853264), (199.25572814945022, 125.17455223371334), (87.34013154215911, -128.711688068959), (133.5485728199909, -153.7335690135599), (-151.13872311178653, -28.677828917679143), (-189.75634569088842, -29.6029645439884), (-92.66255055407055, 13.631278240754085), (-134.9949139257636, 28.302316388502625), (-9.791474631399328, 89.1971100809169), (-11.981060180592303, 121.78529686725663)]",0,radial,84.16,467.84,9.74,13.16,0.0855,1,,,,,0,0,0,0,,,,,0,31,31,12,,,,,,,,,,,,,,,space,0.7769926004111767,,,,,36,,,,,,,,,,,,,,,,,,,,,,,,,,,484.4102209000848,None,,,,,,,,,11,19,Prefer not to say,2021_Dec_15_1015,uniform_mix,2021.2.3,60.50020348930023,
c4_mix_ref.xlsx,c4_mix_t.xlsx,c4_mix.xlsx,stims/contrast112.png,,112,1769,0.4,40,"[(-100.0, -40.0), (180.0, -20.0), (110.0, -130.0), (100.0, 130.0), (90.0, 60.0), (-150.0, 140.0), (-190.0, -100.0), (-30.0, 110.0), (-120.0, 10.0), (-60.0, -100.0), (190.0, -110.0), (50.0, -110.0), (0.0, -140.0), (20.0, 130.0), (120.0, 20.0), (-110.0, 70.0), (90.0, -50.0), (180.0, 110.0), (-190.0, 40.0), (-110.0, -140.0), (36.692737486990154, -116.24095802489663), (-68.06042536639305, -86.01602955335642), (76.19765771144824, -65.37251345546011), (38.66132802950884, 131.06232336417554), (170.77761933472243, -133.65527607849782), (-190.34180683867993, 14.509566738098727), (-121.9466197116765, -7.3949760824808095), (-83.0419829299612, -165.57814570195902), (-124.11017759287894, 62.00631480338242), (122.19984021165847, 41.58971069310151), (-131.5448004586597, 155.68552775532075), (-169.6812539858197, 117.68299985586016), (-220.39243600861747, -66.59370742755215), (-163.3436195933396, -144.04901610490637), (-8.953555231701017, 115.69013302910332), (-49.66898123523734, 112.87709487837975), (-25.12059864226279, -144.41959984633166), (26.41574913199173, -135.27775779247443), (189.86704969181181, 72.21305946576877), (154.69304808947027, 124.51440592375116)]","[(-100.0, -40.0), (180.0, -20.0), (110.0, -130.0), (100.0, 130.0), (90.0, 60.0), (-150.0, 140.0), (-190.0, -100.0), (-30.0, 110.0), (-120.0, 10.0), (-60.0, -100.0), (190.0, -110.0), (50.0, -110.0), (0.0, -140.0), (20.0, 130.0), (120.0, 20.0), (-110.0, 70.0), (90.0, -50.0), (180.0, 110.0), (-190.0, 40.0), (-110.0, -140.0)]","[(36.692737486990154, -116.24095802489663), (-68.06042536639305, -86.01602955335642), (76.19765771144824, -65.37251345546011), (38.66132802950884, 131.06232336417554), (170.77761933472243, -133.65527607849782), (-190.34180683867993, 14.509566738098727), (-121.9466197116765, -7.3949760824808095), (-83.0419829299612, -165.57814570195902), (-124.11017759287894, 62.00631480338242), (122.19984021165847, 41.58971069310151), (-131.5448004586597, 155.68552775532075), (-169.6812539858197, 117.68299985586016), (-220.39243600861747, -66.59370742755215), (-163.3436195933396, -144.04901610490637), (-8.953555231701017, 115.69013302910332), (-49.66898123523734, 112.87709487837975), (-25.12059864226279, -144.41959984633166), (26.41574913199173, -135.27775779247443), (189.86704969181181, 72.21305946576877), (154.69304808947027, 124.51440592375116)]",0.5,tangential,81.75,468.07,10.29,13.83,0.0855,4,,,,,0,0,0,0,,,,,0,32,32,111,,,,,,,,,,,,,,,space,1.7733487002551556,,,,,34,,,,,,,,,,,,,,,,,,,,,,,,,,,491.1987922000699,None,,,,,,,,,11,19,Prefer not to say,2021_Dec_15_1015,uniform_mix,2021.2.3,60.50020348930023,
c4_mix_ref.xlsx,c4_mix_t.xlsx,c4_mix.xlsx,stims/contrast48.png,,48,358,0.4,44,"[(-190.0, 140.0), (200.0, -140.0), (-90.0, 130.0), (-90.0, 70.0), (100.0, -90.0), (200.0, 140.0), (-10.0, 100.0), (110.0, 100.0), (-90.0, -70.0), (-100.0, -20.0), (90.0, 50.0), (-130.0, -140.0), (200.0, -20.0), (-160.0, -60.0), (30.0, 140.0), (-60.0, -120.0), (50.0, 90.0), (0.0, -100.0), (110.0, -20.0), (160.0, 60.0), (40.0, -110.0), (-140.0, 20.0), (-72.90247136091259, -60.589412178377955), (-129.93268437692484, -42.536505208432615), (-8.806594681987185, 81.6337519253457), (-123.11515299194602, -114.83476819919622), (-54.05233991722508, -105.51329094799584), (-113.91063826189188, 19.79612268800164), (130.24413484297284, 106.25099835634771), (187.10288041065704, 67.20371747521682), (100.3943123948033, 53.76215310195977), (242.4175027514931, 174.22347646796857), (5.850847803672796, -110.4149921633225), (59.934688000640364, 111.55691455656557), (91.85118027165676, -20.632912185305514), (126.00456961391758, -30.90327587856119), (34.54409290621845, -83.83657999091902), (42.10422754734663, -128.27721748363714), (29.76920391614692, 112.88100232711436), (30.3003384793857, 158.3295365073281), (178.0033767295234, -19.58822029658792), (244.45400405869765, -30.55142278064683), (-80.4972074259054, -21.47090696646138), (-115.96137934884564, -23.218702979282778)]","[(-190.0, 140.0), (200.0, -140.0), (-90.0, 130.0), (-90.0, 70.0), (100.0, -90.0), (200.0, 140.0), (-10.0, 100.0), (110.0, 100.0), (-90.0, -70.0), (-100.0, -20.0), (90.0, 50.0), (-130.0, -140.0), (200.0, -20.0), (-160.0, -60.0), (30.0, 140.0), (-60.0, -120.0), (50.0, 90.0), (0.0, -100.0), (110.0, -20.0), (160.0, 60.0), (40.0, -110.0), (-140.0, 20.0)]","[(-72.90247136091259, -60.589412178377955), (-129.93268437692484, -42.536505208432615), (-8.806594681987185, 81.6337519253457), (-123.11515299194602, -114.83476819919622), (-54.05233991722508, -105.51329094799584), (-113.91063826189188, 19.79612268800164), (130.24413484297284, 106.25099835634771), (187.10288041065704, 67.20371747521682), (100.3943123948033, 53.76215310195977), (242.4175027514931, 174.22347646796857), (5.850847803672796, -110.4149921633225), (59.934688000640364, 111.55691455656557), (91.85118027165676, -20.632912185305514), (126.00456961391758, -30.90327587856119), (34.54409290621845, -83.83657999091902), (42.10422754734663, -128.27721748363714), (29.76920391614692, 112.88100232711436), (30.3003384793857, 158.3295365073281), (178.0033767295234, -19.58822029658792), (244.45400405869765, -30.55142278064683), (-80.4972074259054, -21.47090696646138), (-115.96137934884564, -23.218702979282778)]",0.5,radial,89.95,514.26,9.48,12.76,0.0856,4,,,,,0,0,0,0,,,,,0,33,33,47,,,,,,,,,,,,,,,space,1.3588383998721838,,,,,28,,,,,,,,,,,,,,,,,,,,,,,,,,,498.6126351002604,None,,,,,,,,,11,19,Prefer not to say,2021_Dec_15_1015,uniform_mix,2021.2.3,60.50020348930023,
c4_mix_ref.xlsx,c4_mix_t.xlsx,c4_mix.xlsx,stims/contrast75.png,,75,1561,0.4,34,"[(100.0, -90.0), (-120.0, 10.0), (80.0, 60.0), (-20.0, 100.0), (70.0, 110.0), (-160.0, 110.0), (-80.0, -120.0), (200.0, -50.0), (-80.0, 100.0), (-120.0, -60.0), (-90.0, 50.0), (-190.0, -60.0), (10.0, -110.0), (140.0, 80.0), (110.0, -10.0), (200.0, -140.0), (70.0, -140.0), (23.92540493363535, -117.01072760647776), (160.08877644538043, -180.66305853928853), (217.45284762916415, -115.37437050890554), (143.7227951230125, 62.53859418704337), (123.50841847150423, 113.52211740823812), (107.27009183125435, -30.816266346804582), (107.90083846298809, 8.033688652103493), (-89.40719056633026, 62.71924495912148), (-100.70574514209468, 37.242041493116716), (-56.23356005035119, 120.72632101882458), (-84.6769958460387, 85.11953291187504), (-129.63022690653466, -45.86884207839806), (-109.98479341777127, -77.09244241177797), (47.1735956858017, -153.2620132568402), (102.00076132740668, -134.33848002960357), (-202.68274958050938, -20.39121422721962), (-195.0535814047605, -84.06240052897593)]","[(100.0, -90.0), (-120.0, 10.0), (80.0, 60.0), (-20.0, 100.0), (70.0, 110.0), (-160.0, 110.0), (-80.0, -120.0), (200.0, -50.0), (-80.0, 100.0), (-120.0, -60.0), (-90.0, 50.0), (-190.0, -60.0), (10.0, -110.0), (140.0, 80.0), (110.0, -10.0), (200.0, -140.0), (70.0, -140.0)]","[(23.92540493363535, -117.01072760647776), (160.08877644538043, -180.66305853928853), (217.45284762916415, -115.37437050890554), (143.7227951230125, 62.53859418704337), (123.50841847150423, 113.52211740823812), (107.27009183125435, -30.816266346804582), (107.90083846298809, 8.033688652103493), (-89.40719056633026, 62.71924495912148), (-100.70574514209468, 37.242041493116716), (-56.23356005035119, 120.72632101882458), (-84.6769958460387, 85.11953291187504), (-129.63022690653466, -45.86884207839806), (-109.98479341777127, -77.09244241177797), (47.1735956858017, -153.2620132568402), (102.00076132740668, -134.33848002960357), (-202.68274958050938, -20.39121422721962), (-195.0535814047605, -84.06240052897593)]",0,tangential,77.82,398.24,9.85,13.2,0.0854,3,,,,,0,0,0,0,,,,,0,34,34,74,,,,,,,,,,,,,,,space,0.8329137000255287,,,,,28,,,,,,,,,,,,,,,,,,,,,,,,,,,503.8491339003667,None,,,,,,,,,11,19,Prefer not to say,2021_Dec_15_1015,uniform_mix,2021.2.3,60.50020348930023,
c4_mix_ref.xlsx,c4_mix_t.xlsx,c4_mix.xlsx,stims/contrast128.png,,128,1025,0.4,36,"[(-90.0, 60.0), (90.0, 110.0), (-100.0, -140.0), (-140.0, 0.0), (30.0, 120.0), (110.0, -50.0), (-200.0, 60.0), (60.0, -100.0), (0.0, -140.0), (-190.0, -100.0), (-120.0, 110.0), (100.0, 20.0), (-80.0, -80.0), (180.0, 110.0), (-10.0, 100.0), (180.0, 20.0), (-50.0, 140.0), (160.0, -100.0), (-76.2606516863627, 78.00250828731356), (100.46219561425924, 99.11929673966756), (-107.88697659899199, -116.32202324203772), (-130.18284780507503, 16.091282197459066), (43.59594197143309, 110.28319117462895), (110.29047910404465, -65.17790307220443), (-191.64671636242377, 94.37880047124719), (47.62444526385518, -111.33942960253097), (-15.784200572270208, -145.46042994577715), (-191.08592006923885, -130.0619459171553), (-138.1936720782042, 86.66278955649707), (95.06137754122432, 30.43220803388874), (-70.93993580413235, -90.4865703180249), (166.69082683531724, 143.33015843295658), (-29.656745209104002, 92.50460657789417), (182.77804955196405, 49.29097576956633), (-65.15753473970635, 135.0304300880798), (184.97954795061005, -66.58642806866794)]","[(-90.0, 60.0), (90.0, 110.0), (-100.0, -140.0), (-140.0, 0.0), (30.0, 120.0), (110.0, -50.0), (-200.0, 60.0), (60.0, -100.0), (0.0, -140.0), (-190.0, -100.0), (-120.0, 110.0), (100.0, 20.0), (-80.0, -80.0), (180.0, 110.0), (-10.0, 100.0), (180.0, 20.0), (-50.0, 140.0), (160.0, -100.0)]","[(-76.2606516863627, 78.00250828731356), (100.46219561425924, 99.11929673966756), (-107.88697659899199, -116.32202324203772), (-130.18284780507503, 16.091282197459066), (43.59594197143309, 110.28319117462895), (110.29047910404465, -65.17790307220443), (-191.64671636242377, 94.37880047124719), (47.62444526385518, -111.33942960253097), (-15.784200572270208, -145.46042994577715), (-191.08592006923885, -130.0619459171553), (-138.1936720782042, 86.66278955649707), (95.06137754122432, 30.43220803388874), (-70.93993580413235, -90.4865703180249), (166.69082683531724, 143.33015843295658), (-29.656745209104002, 92.50460657789417), (182.77804955196405, 49.29097576956633), (-65.15753473970635, 135.0304300880798), (184.97954795061005, -66.58642806866794)]",1,tangential,78.73,420.24,9.86,13.26,0.0857,4,,,,,0,0,0,0,,,,,0,35,35,127,,,,,,,,,,,,,,,space,0.7216702001169324,,,,,25,,,,,,,,,,,,,,,,,,,,,,,,,,,508.9929925999604,None,,,,,,,,,11,19,Prefer not to say,2021_Dec_15_1015,uniform_mix,2021.2.3,60.50020348930023,
c4_mix_ref.xlsx,c4_mix_t.xlsx,c4_mix.xlsx,stims/contrast117.png,,117,2325,0.4,44,"[(40.0, 100.0), (0.0, 130.0), (90.0, 120.0), (80.0, -60.0), (80.0, 60.0), (150.0, 70.0), (-90.0, 130.0), (-170.0, -120.0), (-80.0, 60.0), (-120.0, 30.0), (-170.0, -40.0), (200.0, -50.0), (190.0, -140.0), (-170.0, 100.0), (-80.0, -80.0), (-50.0, -130.0), (100.0, -120.0), (-40.0, 100.0), (-100.0, -20.0), (140.0, 0.0), (20.0, -140.0), (200.0, 140.0), (-177.89397379234276, -11.452606370900725), (178.20028475182684, -183.29835088414768), (182.6645933726373, -94.55679051683683), (150.43367059171428, -14.323121417446018), (-76.438048056304, 147.62033738774394), (3.283322589312064, -148.53779303931867), (110.36288457838913, -101.06729622921553), (-183.71475479489163, 72.6383043773281), (129.3614784178097, 85.13725252478241), (-127.47429087460976, 13.33595989781216), (-73.52362715995845, -94.26061181346145), (-82.96198045506361, 47.96219501326968), (-193.4080033896936, -82.83215614701396), (-139.56771772491166, -146.18999894942885), (-98.12448014462367, -2.4565917520826304), (-98.72287479953641, -38.86326726257235), (-79.44295028491011, -122.1883942991105), (-18.370221873874783, -136.21708769066228), (237.66731424238372, 94.61576659063948), (172.39722119709512, 152.88014662154416), (-19.093603609879736, 106.93186256638221), (-52.32428050984507, 87.23590976236555)]","[(40.0, 100.0), (0.0, 130.0), (90.0, 120.0), (80.0, -60.0), (80.0, 60.0), (150.0, 70.0), (-90.0, 130.0), (-170.0, -120.0), (-80.0, 60.0), (-120.0, 30.0), (-170.0, -40.0), (200.0, -50.0), (190.0, -140.0), (-170.0, 100.0), (-80.0, -80.0), (-50.0, -130.0), (100.0, -120.0), (-40.0, 100.0), (-100.0, -20.0), (140.0, 0.0), (20.0, -140.0), (200.0, 140.0)]","[(-177.89397379234276, -11.452606370900725), (178.20028475182684, -183.29835088414768), (182.6645933726373, -94.55679051683683), (150.43367059171428, -14.323121417446018), (-76.438048056304, 147.62033738774394), (3.283322589312064, -148.53779303931867), (110.36288457838913, -101.06729622921553), (-183.71475479489163, 72.6383043773281), (129.3614784178097, 85.13725252478241), (-127.47429087460976, 13.33595989781216), (-73.52362715995845, -94.26061181346145), (-82.96198045506361, 47.96219501326968), (-193.4080033896936, -82.83215614701396), (-139.56771772491166, -146.18999894942885), (-98.12448014462367, -2.4565917520826304), (-98.72287479953641, -38.86326726257235), (-79.44295028491011, -122.1883942991105), (-18.370221873874783, -136.21708769066228), (237.66731424238372, 94.61576659063948), (172.39722119709512, 152.88014662154416), (-19.093603609879736, 106.93186256638221), (-52.32428050984507, 87.23590976236555)]",0.5,tangential,86.26,515.38,10.19,13.75,0.0854,1,,,,,0,0,0,0,,,,,0,36,36,116,,,,,,,,,,,,,,,space,0.6199502996169031,,,,,31,,,,,,,,,,,,,,,,,,,,,,,,,,,513.340565700084,None,,,,,,,,,11,19,Prefer not to say,2021_Dec_15_1015,uniform_mix,2021.2.3,60.50020348930023,
c4_mix_ref.xlsx,c4_mix_t.xlsx,c4_mix.xlsx,stims/contrast74.png,,74,4272,0.4,34,"[(-90.0, 120.0), (-110.0, -40.0), (200.0, -130.0), (-10.0, 100.0), (-200.0, 50.0), (140.0, 110.0), (50.0, 120.0), (-200.0, 140.0), (110.0, 50.0), (20.0, -110.0), (-100.0, -90.0), (170.0, 0.0), (-100.0, 20.0), (-40.0, -120.0), (-200.0, -80.0), (90.0, -100.0), (110.0, -20.0), (97.76353086109236, 75.97519474175536), (-51.103857912282706, -105.88927052101818), (-20.386181334990226, -115.73842531712705), (-3.1497680494804285, -118.39089196398619), (45.18152609200658, -102.60999637602528), (182.82074041423377, -22.33817102103052), (175.65441738953623, 22.904815751878687), (73.60552737102876, -101.5388934995949), (100.9350092394138, -79.48694988017759), (-121.65709244430886, -81.09102490460654), (-88.69556947706167, -97.88849891537117), (-95.1799647980057, 31.001299808779635), (-104.8108959680869, 9.947375257263218), (-218.73163231825194, -63.284437592771496), (-186.4880096108807, -111.57911731510538), (108.41668982979645, -45.58610898452575), (116.81416454281225, -2.5821718538738736)]","[(-90.0, 120.0), (-110.0, -40.0), (200.0, -130.0), (-10.0, 100.0), (-200.0, 50.0), (140.0, 110.0), (50.0, 120.0), (-200.0, 140.0), (110.0, 50.0), (20.0, -110.0), (-100.0, -90.0), (170.0, 0.0), (-100.0, 20.0), (-40.0, -120.0), (-200.0, -80.0), (90.0, -100.0), (110.0, -20.0)]","[(97.76353086109236, 75.97519474175536), (-51.103857912282706, -105.88927052101818), (-20.386181334990226, -115.73842531712705), (-3.1497680494804285, -118.39089196398619), (45.18152609200658, -102.60999637602528), (182.82074041423377, -22.33817102103052), (175.65441738953623, 22.904815751878687), (73.60552737102876, -101.5388934995949), (100.9350092394138, -79.48694988017759), (-121.65709244430886, -81.09102490460654), (-88.69556947706167, -97.88849891537117), (-95.1799647980057, 31.001299808779635), (-104.8108959680869, 9.947375257263218), (-218.73163231825194, -63.284437592771496), (-186.4880096108807, -111.57911731510538), (108.41668982979645, -45.58610898452575), (116.81416454281225, -2.5821718538738736)]",0,tangential,81.12,404.38,9.55,12.62,0.0841,2,,,,,0,0,0,0,,,,,0,37,37,73,,,,,,,,,,,,,,,space,0.6116260001435876,,,,,26,,,,,,,,,,,,,,,,,,,,,,,,,,,517.8412729003467,None,,,,,,,,,11,19,Prefer not to say,2021_Dec_15_1015,uniform_mix,2021.2.3,60.50020348930023,
