reference,test_blockOrder,blockOrder,imageFile,num,index,n,winsize,numerosity,allposis,centralposis,extraposis,perceptpairs,protectzonetype,convexhull,occupancyarea,averageeccentricity,averagespacing,density,display_i,p_trials.thisRepN,p_trials.thisTrialN,p_trials.thisN,p_trials.thisIndex,blocks.thisRepN,blocks.thisTrialN,blocks.thisN,blocks.thisIndex,trials_2.thisRepN,trials_2.thisTrialN,trials_2.thisN,trials_2.thisIndex,trials.thisRepN,trials.thisTrialN,trials.thisN,trials.thisIndex,key_resp.keys,key_resp.rt,key_resp_14.keys,key_resp_14.rt,key_resp_15.keys,key_resp_15.rt,key_resp_16.keys,key_resp_16.rt,key_resp_17.keys,key_resp_17.rt,key_resp_18.keys,key_resp_18.rt,key_resp_19.keys,key_resp_19.rt,key_resp_26.keys,key_resp_26.rt,p_img.started,p_img.stopped,text_14.started,text_14.stopped,responseN,key_resp_4.keys,key_resp_4.rt,text_20.started,text_20.stopped,key_resp_20.keys,key_resp_20.rt,key_resp_20.started,key_resp_20.stopped,key_resp_22.keys,key_resp_22.rt,key_resp_5.keys,key_resp_5.rt,image_2.started,image_2.stopped,blank.started,blank.stopped,text_21.started,text_21.stopped,key_resp_7.keys,key_resp_7.rt,key_resp_7.started,key_resp_7.stopped,key_resp_8.keys,key_resp_8.rt,key_resp_23.keys,key_resp_23.rt,image.started,image.stopped,text_31.started,text_31.stopped,text_32.started,text_32.stopped,key_resp_2.keys,key_resp_2.rt,thanksm.started,thanksm.stopped,participant,age,sex,date,expName,psychopyVersion,frameRate,
,,,,,,,,,,,,,,,,,,,,,,,,,,,,,,,,,,,,space,12.976305400021374,,,,,,,,,,,,,,,,,,,,,,,,,,,,,,,,,,,,,,,,,,,,,,,,,,,,,,,,15,19,Female,2021_Dec_15_1802,uniform_mix,2021.2.3,59.998908081405965,
,,,,,,,,,,,,,,,,,,,,,,,,,,,,,,,,,,,,,,space,28.193066699896008,,,,,,,,,,,,,,,,,,,,,,,,,,,,,,,,,,,,,,,,,,,,,,,,,,,,,,15,19,Female,2021_Dec_15_1802,uniform_mix,2021.2.3,59.998908081405965,
,,,,,,,,,,,,,,,,,,,,,,,,,,,,,,,,,,,,,,,,space,1.459228599909693,,,,,,,,,,,,,,,,,,,,,,,,,,,,,,,,,,,,,,,,,,,,,,,,,,,,15,19,Female,2021_Dec_15_1802,uniform_mix,2021.2.3,59.998908081405965,
,,,,,,,,,,,,,,,,,,,,,,,,,,,,,,,,,,,,,,,,,,space,10.413934099953622,,,,,,,,,,,,,,,,,,,,,,,,,,,,,,,,,,,,,,,,,,,,,,,,,,15,19,Female,2021_Dec_15_1802,uniform_mix,2021.2.3,59.998908081405965,
,,,,,,,,,,,,,,,,,,,,,,,,,,,,,,,,,,,,,,,,,,,,space,3.736724399961531,,,,,,,,,,,,,,,,,,,,,,,,,,,,,,,,,,,,,,,,,,,,,,,,15,19,Female,2021_Dec_15_1802,uniform_mix,2021.2.3,59.998908081405965,
,,,,,,,,,,,,,,,,,,,,,,,,,,,,,,,,,,,,,,,,,,,,,,space,12.741028999909759,,,,,,,,,,,,,,,,,,,,,,,,,,,,,,,,,,,,,,,,,,,,,,15,19,Female,2021_Dec_15_1802,uniform_mix,2021.2.3,59.998908081405965,
,,,,,,,,,,,,,,,,,,,,,,,,,,,,,,,,,,,,,,,,,,,,,,,,space,0.8355509000830352,space,1.6977810999378562,2037.7348261000589,2037.9112092000432,2037.9112092000432,None,,space,1.5216862000524998,,,,,,,,,,,,,,,,,,,,,,,,,,,,,,,,,,,15,19,Female,2021_Dec_15_1802,uniform_mix,2021.2.3,59.998908081405965,
,,,,,,,,,,,,,,,,,,,,,,,,,,,,,,,,,,,,,,,,,,,,,,,,,,,,,,,,,,,2040.592841300182,None,space,7.573812699876726,2040.592841300182,None,,,,,,,,,,,,,,,,,,,,,,,,,,,,,15,19,Female,2021_Dec_15_1802,uniform_mix,2021.2.3,59.998908081405965,
c4_black_ref.xlsx,c4_black_t.xlsx,c4_black.xlsx,stims/blackref2.png,34,,,,,,,,,,,,,,,,,,,,0,0,0,0,0,0,0,1,,,,,,,,,,,,,,,,,,,space,1.3173199002631009,,,,,,,,,,,,,,n,38.58113900013268,space,1.9366080998443067,2091.2879369002767,2091.4634300000034,2091.4634300000034,None,2091.7124113999307,None,space,1.9492059997282922,2091.7124113999307,None,space,27.281509899999946,,,,,,,,,,,,,15,19,Female,2021_Dec_15_1802,uniform_mix,2021.2.3,59.998908081405965,
c4_black_ref.xlsx,c4_black_t.xlsx,c4_black.xlsx,stims/blackref3.png,39,,,,,,,,,,,,,,,,,,,,0,0,0,0,0,1,1,2,,,,,,,,,,,,,,,,,,,space,0.7557467999868095,,,,,,,,,,,,,,n,2.9746090001426637,space,3.330553099978715,2129.2294346001,2129.4023243002594,2129.4023243002594,None,2129.6684182998724,None,space,1.0808279998600483,2129.6684182998724,None,space,2.6222126996144652,,,,,,,,,,,,,15,19,Female,2021_Dec_15_1802,uniform_mix,2021.2.3,59.998908081405965,
c4_black_ref.xlsx,c4_black_t.xlsx,c4_black.xlsx,stims/blackref4.png,44,,,,,,,,,,,,,,,,,,,,0,0,0,0,0,2,2,3,,,,,,,,,,,,,,,,,,,space,1.1503012999892235,,,,,,,,,,,,,,n,0.6836751000955701,space,1.7007667003199458,2138.1373939001933,2138.3224222999997,2138.3224222999997,None,2138.5821449998766,None,space,0.7830509999766946,2138.5821449998766,None,space,1.5261204997077584,,,,,,,,,,,,,15,19,Female,2021_Dec_15_1802,uniform_mix,2021.2.3,59.998908081405965,
c4_black_ref.xlsx,c4_black_t.xlsx,c4_black.xlsx,stims/blackref5.png,49,,,,,,,,,,,,,,,,,,,,0,0,0,0,0,3,3,4,,,,,,,,,,,,,,,,,,,space,0.7880635997280478,,,,,,,,,,,,,,n,0.16837090020999312,space,1.1712277000769973,2144.1530440999195,2144.322218300309,2144.322218300309,None,2144.596112300176,None,space,0.7619201000779867,2144.596112300176,None,space,1.1420950000174344,,,,,,,,,,,,,15,19,Female,2021_Dec_15_1802,uniform_mix,2021.2.3,59.998908081405965,
c4_black_ref.xlsx,c4_black_t.xlsx,c4_black.xlsx,stims/blackref1.png,29,,,,,,,,,,,,,,,,,,,,0,0,0,0,0,4,4,0,,,,,,,,,,,,,,,,,,,space,0.9750176002271473,,,,,,,,,,,,,,n,0.1310119000263512,space,0.5775020997971296,2149.3394047999755,2149.5066686999053,2149.5066686999053,None,2149.781316500157,None,space,0.623310400173068,2149.781316500157,None,space,1.9962739003822207,,,,,,,,,,,,,15,19,Female,2021_Dec_15_1802,uniform_mix,2021.2.3,59.998908081405965,
c4_black_ref.xlsx,c4_black_t.xlsx,c4_black.xlsx,stims/black139.png,,139,1250,0.4,42,"[(-150.0, 60.0), (-110.0, -70.0), (-100.0, -130.0), (180.0, 80.0), (-50.0, 120.0), (180.0, -140.0), (110.0, 0.0), (80.0, 70.0), (60.0, -80.0), (-80.0, 80.0), (-100.0, 10.0), (-190.0, 140.0), (-190.0, -140.0), (170.0, -30.0), (120.0, -70.0), (70.0, 140.0), (0.0, 110.0), (60.0, -130.0), (-200.0, -30.0), (-10.0, -130.0), (-50.0, -100.0), (-139.30697067229335, 86.828503866508), (-108.10355062050203, -52.460722937481904), (-119.38824184985629, -107.27825008321608), (204.7322925439263, 51.88084080555586), (-26.73207238275384, 133.71445625646697), (156.5314504734247, -152.6026295399788), (104.88901392110704, -21.96940152566512), (95.52439706899473, 51.5321622817632), (49.24467031194591, -93.12930130710544), (-67.46194673692834, 98.18974351461705), (-97.82119597367604, -2.4590228871865207), (-215.03100458979998, 104.94544409806122), (-160.15569914414067, -157.2812354298727), (168.5684078805079, 5.302083330346818), (120.37789435215666, -50.71418289724012), (53.11448193212655, 158.85144825811665), (-20.781838833983784, 117.0597894242547), (82.36237924194353, -113.46059452549454), (-197.57762096760084, -59.24701044233973), (11.88280023343394, -139.81754020316646), (-33.20439953095618, -102.89511122701927)]","[(-150.0, 60.0), (-110.0, -70.0), (-100.0, -130.0), (180.0, 80.0), (-50.0, 120.0), (180.0, -140.0), (110.0, 0.0), (80.0, 70.0), (60.0, -80.0), (-80.0, 80.0), (-100.0, 10.0), (-190.0, 140.0), (-190.0, -140.0), (170.0, -30.0), (120.0, -70.0), (70.0, 140.0), (0.0, 110.0), (60.0, -130.0), (-200.0, -30.0), (-10.0, -130.0), (-50.0, -100.0)]","[(-139.30697067229335, 86.828503866508), (-108.10355062050203, -52.460722937481904), (-119.38824184985629, -107.27825008321608), (204.7322925439263, 51.88084080555586), (-26.73207238275384, 133.71445625646697), (156.5314504734247, -152.6026295399788), (104.88901392110704, -21.96940152566512), (95.52439706899473, 51.5321622817632), (49.24467031194591, -93.12930130710544), (-67.46194673692834, 98.18974351461705), (-97.82119597367604, -2.4590228871865207), (-215.03100458979998, 104.94544409806122), (-160.15569914414067, -157.2812354298727), (168.5684078805079, 5.302083330346818), (120.37789435215666, -50.71418289724012), (53.11448193212655, 158.85144825811665), (-20.781838833983784, 117.0597894242547), (82.36237924194353, -113.46059452549454), (-197.57762096760084, -59.24701044233973), (11.88280023343394, -139.81754020316646), (-33.20439953095618, -102.89511122701927)]",1,tangential,84.51,491.02,9.93,13.38,0.0855,3,,,,,0,0,0,0,,,,,0,0,0,138,,,,,,,,,,,,,,,space,0.8152847997844219,,,,,40,,,,,,,,,,,,,,,,,,,,,,,,,space,2.7362135997973382,2156.349018699955,None,,,,,,,,,15,19,Female,2021_Dec_15_1802,uniform_mix,2021.2.3,59.998908081405965,
c4_black_ref.xlsx,c4_black_t.xlsx,c4_black.xlsx,stims/black66.png,,66,1395,0.4,42,"[(0.0, 140.0), (-130.0, 30.0), (100.0, 110.0), (150.0, 50.0), (-100.0, -30.0), (-50.0, -110.0), (90.0, 50.0), (40.0, 110.0), (-80.0, 60.0), (-120.0, -80.0), (70.0, -110.0), (80.0, -60.0), (-120.0, 120.0), (160.0, -90.0), (200.0, -10.0), (190.0, 120.0), (-40.0, 110.0), (10.0, -120.0), (-200.0, 100.0), (-200.0, -70.0), (110.0, 0.0), (-10.009679235210328, 119.16132521265428), (-106.16446901649553, 16.730598207486324), (83.45171223835797, 88.38575986635871), (117.75876669690336, 38.621576203249084), (-89.31052991357927, -20.99342276189603), (-42.696050892554894, -92.26355555084307), (73.47399389122383, 35.76596098009109), (29.29325989321627, 91.74567234746145), (-62.978112283615786, 51.78093834042561), (-103.81174278666762, -60.22718287809751), (89.88771844799905, -130.16534560593945), (85.4827310631756, -71.60827133846081), (-149.41718562078785, 143.18263095536963), (188.95082886292562, -115.01777364395471), (221.17325983388523, 6.892803706817183), (221.45170356588517, 128.10954237888922), (-47.01879987082195, 120.87751659895318), (17.617816987520975, -146.08833543434804), (-224.9269532858484, 99.5304082875889), (-236.5405352620823, -94.77580530549066), (121.83056737965097, -5.65569123339257)]","[(0.0, 140.0), (-130.0, 30.0), (100.0, 110.0), (150.0, 50.0), (-100.0, -30.0), (-50.0, -110.0), (90.0, 50.0), (40.0, 110.0), (-80.0, 60.0), (-120.0, -80.0), (70.0, -110.0), (80.0, -60.0), (-120.0, 120.0), (160.0, -90.0), (200.0, -10.0), (190.0, 120.0), (-40.0, 110.0), (10.0, -120.0), (-200.0, 100.0), (-200.0, -70.0), (110.0, 0.0)]","[(-10.009679235210328, 119.16132521265428), (-106.16446901649553, 16.730598207486324), (83.45171223835797, 88.38575986635871), (117.75876669690336, 38.621576203249084), (-89.31052991357927, -20.99342276189603), (-42.696050892554894, -92.26355555084307), (73.47399389122383, 35.76596098009109), (29.29325989321627, 91.74567234746145), (-62.978112283615786, 51.78093834042561), (-103.81174278666762, -60.22718287809751), (89.88771844799905, -130.16534560593945), (85.4827310631756, -71.60827133846081), (-149.41718562078785, 143.18263095536963), (188.95082886292562, -115.01777364395471), (221.17325983388523, 6.892803706817183), (221.45170356588517, 128.10954237888922), (-47.01879987082195, 120.87751659895318), (17.617816987520975, -146.08833543434804), (-224.9269532858484, 99.5304082875889), (-236.5405352620823, -94.77580530549066), (121.83056737965097, -5.65569123339257)]",1,radial,87.29,491.41,9.63,13.08,0.0855,2,,,,,0,0,0,0,,,,,0,1,1,65,,,,,,,,,,,,,,,space,0.9370108000002801,,,,,38,,,,,,,,,,,,,,,,,,,,,,,,,,,2160.4274118002504,None,,,,,,,,,15,19,Female,2021_Dec_15_1802,uniform_mix,2021.2.3,59.998908081405965,
c4_black_ref.xlsx,c4_black_t.xlsx,c4_black.xlsx,stims/black79.png,,79,3796,0.4,36,"[(50.0, 90.0), (-30.0, -120.0), (100.0, 10.0), (100.0, -130.0), (180.0, 140.0), (-200.0, -80.0), (-130.0, -130.0), (100.0, 100.0), (-110.0, 20.0), (-30.0, 130.0), (-160.0, -10.0), (150.0, 60.0), (-150.0, 100.0), (-80.0, 60.0), (30.0, -130.0), (-100.0, -70.0), (100.0, -40.0), (180.0, -80.0), (-128.75844389226478, 135.53992731192704), (-173.41592812135553, 93.47911135131523), (171.00610493225628, -112.04156062347388), (200.50527469904335, -38.69104565877541), (15.481239766981716, -141.41724288558683), (42.97955973646921, -125.669624101898), (-163.07884652042847, 8.391742028221586), (-157.36001192762464, -39.71809430979684), (-65.1181266406087, 73.5645754334802), (-87.97096802432202, 50.769133449395895), (-115.04268694652265, -50.71743700744423), (-96.07315043264288, -91.1540709622704), (-4.836884170708089, 128.94464581566623), (-49.69681629289457, 120.15347886197695), (169.69440985069485, 46.99205394633117), (143.3901927836574, 81.64927355866661), (95.45398629897511, -54.36583753920277), (97.91623638363666, -22.778168095077064)]","[(50.0, 90.0), (-30.0, -120.0), (100.0, 10.0), (100.0, -130.0), (180.0, 140.0), (-200.0, -80.0), (-130.0, -130.0), (100.0, 100.0), (-110.0, 20.0), (-30.0, 130.0), (-160.0, -10.0), (150.0, 60.0), (-150.0, 100.0), (-80.0, 60.0), (30.0, -130.0), (-100.0, -70.0), (100.0, -40.0), (180.0, -80.0)]","[(-128.75844389226478, 135.53992731192704), (-173.41592812135553, 93.47911135131523), (171.00610493225628, -112.04156062347388), (200.50527469904335, -38.69104565877541), (15.481239766981716, -141.41724288558683), (42.97955973646921, -125.669624101898), (-163.07884652042847, 8.391742028221586), (-157.36001192762464, -39.71809430979684), (-65.1181266406087, 73.5645754334802), (-87.97096802432202, 50.769133449395895), (-115.04268694652265, -50.71743700744423), (-96.07315043264288, -91.1540709622704), (-4.836884170708089, 128.94464581566623), (-49.69681629289457, 120.15347886197695), (169.69440985069485, 46.99205394633117), (143.3901927836574, 81.64927355866661), (95.45398629897511, -54.36583753920277), (97.91623638363666, -22.778168095077064)]",0,tangential,78.21,420.8,9.69,13,0.0856,3,,,,,0,0,0,0,,,,,0,2,2,78,,,,,,,,,,,,,,,space,0.6386499996297061,,,,,45,,,,,,,,,,,,,,,,,,,,,,,,,,,2164.018921900075,None,,,,,,,,,15,19,Female,2021_Dec_15_1802,uniform_mix,2021.2.3,59.998908081405965,
c4_black_ref.xlsx,c4_black_t.xlsx,c4_black.xlsx,stims/black136.png,,136,1917,0.4,40,"[(70.0, 80.0), (-20.0, -120.0), (90.0, -70.0), (190.0, 60.0), (100.0, -140.0), (-190.0, -40.0), (-110.0, -30.0), (190.0, -90.0), (10.0, 120.0), (-30.0, 100.0), (-150.0, 120.0), (-150.0, 20.0), (120.0, -20.0), (100.0, 20.0), (20.0, -100.0), (130.0, 110.0), (-80.0, 120.0), (-80.0, -110.0), (-200.0, -140.0), (-100.0, 50.0), (77.30022112304167, 69.28352467493947), (-39.26187563514961, -111.88088887789547), (79.40893531533531, -87.70230775422851), (208.6232266962557, 26.5255702436383), (77.2858498936877, -166.5932828521888), (-201.40525085760663, -3.368230641814961), (-118.79148533000294, -16.93834765701206), (189.46403400758066, -117.87766839175481), (36.81223716871774, 121.05562078994407), (-17.81750652500176, 103.50943418584009), (-172.75423047992584, 107.86361507029022), (-151.96222090509244, -16.37347895511614), (130.39320643926828, -6.53022146475557), (103.26692703239527, 37.52141903662253), (36.180532927707986, -100.38645766349191), (103.04343889396335, 127.81859640335455), (-101.94425613263417, 110.51296060917181), (-73.89569091203556, -124.09437918068406), (-167.20973250245424, -180.9667064451408), (-112.83826550824145, 36.44771696550262)]","[(70.0, 80.0), (-20.0, -120.0), (90.0, -70.0), (190.0, 60.0), (100.0, -140.0), (-190.0, -40.0), (-110.0, -30.0), (190.0, -90.0), (10.0, 120.0), (-30.0, 100.0), (-150.0, 120.0), (-150.0, 20.0), (120.0, -20.0), (100.0, 20.0), (20.0, -100.0), (130.0, 110.0), (-80.0, 120.0), (-80.0, -110.0), (-200.0, -140.0), (-100.0, 50.0)]","[(77.30022112304167, 69.28352467493947), (-39.26187563514961, -111.88088887789547), (79.40893531533531, -87.70230775422851), (208.6232266962557, 26.5255702436383), (77.2858498936877, -166.5932828521888), (-201.40525085760663, -3.368230641814961), (-118.79148533000294, -16.93834765701206), (189.46403400758066, -117.87766839175481), (36.81223716871774, 121.05562078994407), (-17.81750652500176, 103.50943418584009), (-172.75423047992584, 107.86361507029022), (-151.96222090509244, -16.37347895511614), (130.39320643926828, -6.53022146475557), (103.26692703239527, 37.52141903662253), (36.180532927707986, -100.38645766349191), (103.04343889396335, 127.81859640335455), (-101.94425613263417, 110.51296060917181), (-73.89569091203556, -124.09437918068406), (-167.20973250245424, -180.9667064451408), (-112.83826550824145, 36.44771696550262)]",1,tangential,81.45,467.87,9.77,13.19,0.0855,4,,,,,0,0,0,0,,,,,0,3,3,135,,,,,,,,,,,,,,,space,0.7059448002837598,,,,,44,,,,,,,,,,,,,,,,,,,,,,,,,,,2167.5517607000656,None,,,,,,,,,15,19,Female,2021_Dec_15_1802,uniform_mix,2021.2.3,59.998908081405965,
c4_black_ref.xlsx,c4_black_t.xlsx,c4_black.xlsx,stims/black101.png,,101,541,0.4,36,"[(-100.0, -20.0), (-80.0, -70.0), (100.0, -30.0), (200.0, -110.0), (190.0, 110.0), (-160.0, 90.0), (-90.0, 80.0), (-140.0, 20.0), (10.0, 100.0), (-180.0, -70.0), (-80.0, -130.0), (140.0, 10.0), (100.0, 70.0), (100.0, -80.0), (40.0, -130.0), (80.0, 120.0), (-60.0, 130.0), (-20.0, -110.0), (-143.0296824725201, 112.9993700745382), (-185.1492939941591, -37.87991491876738), (-47.75215457659773, 145.60048046456308), (136.91134336511703, -16.76758729477652), (98.16737298754164, 106.03328626527113), (5.730982455077637, -117.45992386381428), (-2.553551588111816, 108.23160631626601), (-70.94892634453026, -148.63117309356252), (115.68865921271062, -71.47165011793132), (-148.86469375805473, -3.3737221909403274), (30.301167183732417, -145.5165230849738), (58.30060836717537, -116.55334251183092), (-74.03686215127726, 95.12754399574604), (-92.30076976864558, 63.02052269663167), (207.1440184318737, 94.37110957387813), (161.52977008848953, 140.686668644265), (114.23305843034892, 59.43485461449184), (84.38566139475023, 87.37946684989971)]","[(-100.0, -20.0), (-80.0, -70.0), (100.0, -30.0), (200.0, -110.0), (190.0, 110.0), (-160.0, 90.0), (-90.0, 80.0), (-140.0, 20.0), (10.0, 100.0), (-180.0, -70.0), (-80.0, -130.0), (140.0, 10.0), (100.0, 70.0), (100.0, -80.0), (40.0, -130.0), (80.0, 120.0), (-60.0, 130.0), (-20.0, -110.0)]","[(-143.0296824725201, 112.9993700745382), (-185.1492939941591, -37.87991491876738), (-47.75215457659773, 145.60048046456308), (136.91134336511703, -16.76758729477652), (98.16737298754164, 106.03328626527113), (5.730982455077637, -117.45992386381428), (-2.553551588111816, 108.23160631626601), (-70.94892634453026, -148.63117309356252), (115.68865921271062, -71.47165011793132), (-148.86469375805473, -3.3737221909403274), (30.301167183732417, -145.5165230849738), (58.30060836717537, -116.55334251183092), (-74.03686215127726, 95.12754399574604), (-92.30076976864558, 63.02052269663167), (207.1440184318737, 94.37110957387813), (161.52977008848953, 140.686668644265), (114.23305843034892, 59.43485461449184), (84.38566139475023, 87.37946684989971)]",0.5,tangential,77.23,423.34,9.57,12.82,0.085,1,,,,,0,0,0,0,,,,,0,4,4,100,,,,,,,,,,,,,,,space,1.9882934000343084,,,,,39,,,,,,,,,,,,,,,,,,,,,,,,,,,2171.572549600154,None,,,,,,,,,15,19,Female,2021_Dec_15_1802,uniform_mix,2021.2.3,59.998908081405965,
c4_black_ref.xlsx,c4_black_t.xlsx,c4_black.xlsx,stims/black137.png,,137,1162,0.4,42,"[(-180.0, 140.0), (-100.0, -50.0), (-180.0, -40.0), (-60.0, -140.0), (140.0, 40.0), (-100.0, 10.0), (-90.0, 140.0), (60.0, -130.0), (180.0, 110.0), (-10.0, 140.0), (200.0, -70.0), (130.0, -130.0), (70.0, 80.0), (-190.0, -130.0), (-90.0, 80.0), (90.0, -70.0), (-140.0, 40.0), (120.0, -10.0), (-60.0, -80.0), (-10.0, -110.0), (90.0, 140.0), (-162.49275568047, 179.41963759119483), (-112.9364487586528, -32.50818007583369), (-168.3143878482581, -17.166613255368816), (-76.96271102089378, -139.37378291766504), (147.11667837573742, 11.354625748730228), (-107.02857178580567, 22.838374432695957), (-72.38863359934416, 164.67493704326492), (40.69256287838442, -128.60654892543064), (187.75726293634412, 74.44020055327138), (13.519192164770772, 138.29928988306938), (223.00078436968028, -55.41994536864166), (163.6173229142084, -100.37091986318053), (58.88768453379319, 95.11745145539183), (-172.61396745782764, -171.39122655097384), (-109.58795180073551, 65.99755990752175), (105.17594992456478, -64.39001143285569), (-149.96526059444446, 15.965976029540172), (125.08902514716362, 4.357232319432626), (-47.72285288728045, -89.95202386275011), (8.777299163214735, -116.73208623059719), (54.74928462785189, 160.52225367750668)]","[(-180.0, 140.0), (-100.0, -50.0), (-180.0, -40.0), (-60.0, -140.0), (140.0, 40.0), (-100.0, 10.0), (-90.0, 140.0), (60.0, -130.0), (180.0, 110.0), (-10.0, 140.0), (200.0, -70.0), (130.0, -130.0), (70.0, 80.0), (-190.0, -130.0), (-90.0, 80.0), (90.0, -70.0), (-140.0, 40.0), (120.0, -10.0), (-60.0, -80.0), (-10.0, -110.0), (90.0, 140.0)]","[(-162.49275568047, 179.41963759119483), (-112.9364487586528, -32.50818007583369), (-168.3143878482581, -17.166613255368816), (-76.96271102089378, -139.37378291766504), (147.11667837573742, 11.354625748730228), (-107.02857178580567, 22.838374432695957), (-72.38863359934416, 164.67493704326492), (40.69256287838442, -128.60654892543064), (187.75726293634412, 74.44020055327138), (13.519192164770772, 138.29928988306938), (223.00078436968028, -55.41994536864166), (163.6173229142084, -100.37091986318053), (58.88768453379319, 95.11745145539183), (-172.61396745782764, -171.39122655097384), (-109.58795180073551, 65.99755990752175), (105.17594992456478, -64.39001143285569), (-149.96526059444446, 15.965976029540172), (125.08902514716362, 4.357232319432626), (-47.72285288728045, -89.95202386275011), (8.777299163214735, -116.73208623059719), (54.74928462785189, 160.52225367750668)]",1,tangential,85.53,491.4,10.11,13.62,0.0855,1,,,,,0,0,0,0,,,,,0,5,5,136,,,,,,,,,,,,,,,space,1.001131999772042,,,,,40,,,,,,,,,,,,,,,,,,,,,,,,,,,2176.259797499981,None,,,,,,,,,15,19,Female,2021_Dec_15_1802,uniform_mix,2021.2.3,59.998908081405965,
c4_black_ref.xlsx,c4_black_t.xlsx,c4_black.xlsx,stims/black108.png,,108,3199,0.4,38,"[(190.0, -120.0), (-80.0, 110.0), (-90.0, -90.0), (120.0, 140.0), (100.0, 30.0), (-170.0, -100.0), (110.0, -100.0), (180.0, 70.0), (-20.0, -120.0), (-200.0, 30.0), (10.0, 110.0), (-140.0, -20.0), (170.0, -10.0), (80.0, 80.0), (60.0, -80.0), (30.0, -140.0), (110.0, -20.0), (-90.0, 50.0), (-200.0, 120.0), (171.31165057168482, 46.21615224867824), (22.851974438154684, 109.15917552480322), (168.89808485460765, -36.81964326693816), (49.78022638673323, -84.8330038003964), (-35.38300335252478, -110.78809814080171), (-146.49795925435996, -120.6667360734113), (-132.4663369012347, -39.15186292112327), (-99.86904750493287, 37.65647537672298), (116.06384386144771, 1.2395788661044662), (61.20877807539203, 96.65769239503305), (136.4441160990012, -79.42332079740186), (-195.72493476851577, 153.11725345298595), (-224.32025892294266, 108.12184170096845), (16.52296423188116, -149.31992499861377), (51.42780104932929, -143.009678765809), (-182.95181280433093, 64.15647605880588), (-195.48162043291887, 2.3554353222641), (106.4774128371714, 12.552319908027897), (100.16412402379888, 51.59095675278989)]","[(190.0, -120.0), (-80.0, 110.0), (-90.0, -90.0), (120.0, 140.0), (100.0, 30.0), (-170.0, -100.0), (110.0, -100.0), (180.0, 70.0), (-20.0, -120.0), (-200.0, 30.0), (10.0, 110.0), (-140.0, -20.0), (170.0, -10.0), (80.0, 80.0), (60.0, -80.0), (30.0, -140.0), (110.0, -20.0), (-90.0, 50.0), (-200.0, 120.0)]","[(171.31165057168482, 46.21615224867824), (22.851974438154684, 109.15917552480322), (168.89808485460765, -36.81964326693816), (49.78022638673323, -84.8330038003964), (-35.38300335252478, -110.78809814080171), (-146.49795925435996, -120.6667360734113), (-132.4663369012347, -39.15186292112327), (-99.86904750493287, 37.65647537672298), (116.06384386144771, 1.2395788661044662), (61.20877807539203, 96.65769239503305), (136.4441160990012, -79.42332079740186), (-195.72493476851577, 153.11725345298595), (-224.32025892294266, 108.12184170096845), (16.52296423188116, -149.31992499861377), (51.42780104932929, -143.009678765809), (-182.95181280433093, 64.15647605880588), (-195.48162043291887, 2.3554353222641), (106.4774128371714, 12.552319908027897), (100.16412402379888, 51.59095675278989)]",0.5,tangential,81.13,444.57,9.95,13.35,0.0855,4,,,,,0,0,0,0,,,,,0,6,6,107,,,,,,,,,,,,,,,space,0.8471743003465235,,,,,45,,,,,,,,,,,,,,,,,,,,,,,,,,,2179.6387086999603,None,,,,,,,,,15,19,Female,2021_Dec_15_1802,uniform_mix,2021.2.3,59.998908081405965,
c4_black_ref.xlsx,c4_black_t.xlsx,c4_black.xlsx,stims/black76.png,,76,31,0.4,34,"[(180.0, 80.0), (90.0, 50.0), (-10.0, 130.0), (100.0, -80.0), (-130.0, -20.0), (-70.0, -100.0), (30.0, 100.0), (80.0, 100.0), (-140.0, -80.0), (200.0, -110.0), (120.0, -10.0), (-180.0, 90.0), (-10.0, -110.0), (-90.0, 100.0), (-100.0, 50.0), (200.0, -20.0), (40.0, -140.0), (-108.86244094333011, 38.115031280656), (201.73739930134445, -66.91590652832986), (185.29488846839416, 0.6023157936356256), (-79.1895540830445, 110.22239776417518), (-107.74796284143896, 90.67031067689037), (16.870671161834494, -140.83158621334528), (57.20071315528733, -125.15052202907877), (116.13821524104759, -39.47831198398258), (120.21659959880647, 6.060789351548607), (-22.631618180993115, -110.26477657702594), (8.35693779858029, -116.83012793251741), (-142.70564756586734, -57.7789601324738), (-126.45970803424913, -96.00884126116202), (175.0039582773502, -158.08628924580216), (210.90355333554172, -88.50154481773214), (-163.19298391976665, 129.71096745862894), (-205.83850348861358, 52.35440678027237)]","[(180.0, 80.0), (90.0, 50.0), (-10.0, 130.0), (100.0, -80.0), (-130.0, -20.0), (-70.0, -100.0), (30.0, 100.0), (80.0, 100.0), (-140.0, -80.0), (200.0, -110.0), (120.0, -10.0), (-180.0, 90.0), (-10.0, -110.0), (-90.0, 100.0), (-100.0, 50.0), (200.0, -20.0), (40.0, -140.0)]","[(-108.86244094333011, 38.115031280656), (201.73739930134445, -66.91590652832986), (185.29488846839416, 0.6023157936356256), (-79.1895540830445, 110.22239776417518), (-107.74796284143896, 90.67031067689037), (16.870671161834494, -140.83158621334528), (57.20071315528733, -125.15052202907877), (116.13821524104759, -39.47831198398258), (120.21659959880647, 6.060789351548607), (-22.631618180993115, -110.26477657702594), (8.35693779858029, -116.83012793251741), (-142.70564756586734, -57.7789601324738), (-126.45970803424913, -96.00884126116202), (175.0039582773502, -158.08628924580216), (210.90355333554172, -88.50154481773214), (-163.19298391976665, 129.71096745862894), (-205.83850348861358, 52.35440678027237)]",0,tangential,76.29,389.22,10.01,13.3,0.0874,4,,,,,0,0,0,0,,,,,0,7,7,75,,,,,,,,,,,,,,,space,0.9679570998996496,,,,,35,,,,,,,,,,,,,,,,,,,,,,,,,,,2183.1028435998596,None,,,,,,,,,15,19,Female,2021_Dec_15_1802,uniform_mix,2021.2.3,59.998908081405965,
c4_black_ref.xlsx,c4_black_t.xlsx,c4_black.xlsx,stims/black115.png,,115,4331,0.4,42,"[(-100.0, 70.0), (0.0, 130.0), (170.0, -140.0), (-150.0, -120.0), (-40.0, 100.0), (170.0, 40.0), (-200.0, 40.0), (-60.0, -80.0), (10.0, -100.0), (90.0, -60.0), (80.0, 100.0), (-80.0, 140.0), (190.0, 120.0), (-190.0, 130.0), (-100.0, -60.0), (120.0, -10.0), (60.0, -120.0), (200.0, -30.0), (90.0, 50.0), (-140.0, 0.0), (-30.0, -120.0), (91.1821348590767, 91.94227059213115), (-143.69005037833213, 32.90243833740426), (85.25125505357848, -79.65082451565709), (-111.37530876243949, -44.94077885383538), (-174.99234225159518, 169.89768758785516), (89.56059992390738, 62.778295909164626), (-95.0788657261221, 127.80792661664478), (87.70735170992594, -105.5079174233623), (-204.11791766759552, 7.994698906308912), (-3.0177670901673963, -128.12818917954337), (160.9757627345022, 69.32110798041012), (-76.30012975029507, -71.61128693731091), (-42.77405063354946, -87.7166768520392), (119.73741085735149, -22.769502474558777), (129.814588129221, 9.62855142066904), (182.82528317065623, -56.034114641261425), (219.37070720715596, -10.691189214944188), (209.17593798966806, 85.9023061403496), (175.9300242532594, 164.09228327627116), (-8.843752036465602, -98.05187431310173), (25.004462316827187, -94.19962159963136)]","[(-100.0, 70.0), (0.0, 130.0), (170.0, -140.0), (-150.0, -120.0), (-40.0, 100.0), (170.0, 40.0), (-200.0, 40.0), (-60.0, -80.0), (10.0, -100.0), (90.0, -60.0), (80.0, 100.0), (-80.0, 140.0), (190.0, 120.0), (-190.0, 130.0), (-100.0, -60.0), (120.0, -10.0), (60.0, -120.0), (200.0, -30.0), (90.0, 50.0), (-140.0, 0.0), (-30.0, -120.0)]","[(91.1821348590767, 91.94227059213115), (-143.69005037833213, 32.90243833740426), (85.25125505357848, -79.65082451565709), (-111.37530876243949, -44.94077885383538), (-174.99234225159518, 169.89768758785516), (89.56059992390738, 62.778295909164626), (-95.0788657261221, 127.80792661664478), (87.70735170992594, -105.5079174233623), (-204.11791766759552, 7.994698906308912), (-3.0177670901673963, -128.12818917954337), (160.9757627345022, 69.32110798041012), (-76.30012975029507, -71.61128693731091), (-42.77405063354946, -87.7166768520392), (119.73741085735149, -22.769502474558777), (129.814588129221, 9.62855142066904), (182.82528317065623, -56.034114641261425), (219.37070720715596, -10.691189214944188), (209.17593798966806, 85.9023061403496), (175.9300242532594, 164.09228327627116), (-8.843752036465602, -98.05187431310173), (25.004462316827187, -94.19962159963136)]",0.5,tangential,84.85,491.34,9.88,13.23,0.0855,3,,,,,0,0,0,0,,,,,0,8,8,114,,,,,,,,,,,,,,,space,0.7379548996686935,,,,,37,,,,,,,,,,,,,,,,,,,,,,,,,,,2186.443198800087,None,,,,,,,,,15,19,Female,2021_Dec_15_1802,uniform_mix,2021.2.3,59.998908081405965,
c4_black_ref.xlsx,c4_black_t.xlsx,c4_black.xlsx,stims/black60.png,,60,4012,0.4,38,"[(200.0, -10.0), (110.0, 120.0), (200.0, 130.0), (-80.0, -100.0), (20.0, 130.0), (-40.0, 100.0), (-90.0, -50.0), (-130.0, 120.0), (-200.0, 50.0), (-20.0, -130.0), (60.0, 80.0), (120.0, -120.0), (-100.0, 20.0), (60.0, -80.0), (-170.0, -140.0), (130.0, 60.0), (50.0, -130.0), (-140.0, -30.0), (110.0, -30.0), (176.22018081654278, 8.379627869948504), (89.60231408237442, 110.63185866221174), (167.7971479104226, 102.91911978758749), (-61.945113857669114, -79.41792694823943), (20.54716418167719, 108.85626001841524), (-34.967297143465814, 78.98676235251628), (-71.6675812442063, -43.89680681818402), (-99.07497521848373, 108.20119113942387), (-174.01050693427868, 45.76412290094797), (-21.774761561759924, -146.398207313527), (67.51674754599068, 95.35404754954197), (141.57144339448467, -146.90971814874635), (-122.49907841833806, 23.627017704372363), (67.23847412972066, -96.96727529851933), (-194.5218522107083, -153.85780872989312), (154.3031616076281, 69.40773039441697), (65.99554262067835, -149.87766938251468), (-165.28308956922382, -36.580133076131986), (128.1410934487085, -30.907834907392015)]","[(200.0, -10.0), (110.0, 120.0), (200.0, 130.0), (-80.0, -100.0), (20.0, 130.0), (-40.0, 100.0), (-90.0, -50.0), (-130.0, 120.0), (-200.0, 50.0), (-20.0, -130.0), (60.0, 80.0), (120.0, -120.0), (-100.0, 20.0), (60.0, -80.0), (-170.0, -140.0), (130.0, 60.0), (50.0, -130.0), (-140.0, -30.0), (110.0, -30.0)]","[(176.22018081654278, 8.379627869948504), (89.60231408237442, 110.63185866221174), (167.7971479104226, 102.91911978758749), (-61.945113857669114, -79.41792694823943), (20.54716418167719, 108.85626001841524), (-34.967297143465814, 78.98676235251628), (-71.6675812442063, -43.89680681818402), (-99.07497521848373, 108.20119113942387), (-174.01050693427868, 45.76412290094797), (-21.774761561759924, -146.398207313527), (67.51674754599068, 95.35404754954197), (141.57144339448467, -146.90971814874635), (-122.49907841833806, 23.627017704372363), (67.23847412972066, -96.96727529851933), (-194.5218522107083, -153.85780872989312), (154.3031616076281, 69.40773039441697), (65.99554262067835, -149.87766938251468), (-165.28308956922382, -36.580133076131986), (128.1410934487085, -30.907834907392015)]",1,radial,82.35,444.36,9.71,13.11,0.0855,4,,,,,0,0,0,0,,,,,0,9,9,59,,,,,,,,,,,,,,,space,0.649623999837786,,,,,36,,,,,,,,,,,,,,,,,,,,,,,,,,,2190.9242088003084,None,,,,,,,,,15,19,Female,2021_Dec_15_1802,uniform_mix,2021.2.3,59.998908081405965,
c4_black_ref.xlsx,c4_black_t.xlsx,c4_black.xlsx,stims/blacksub4.png,,4,None,0.4,3,"[(30.0, -110.0), (140.0, 90.0), (-40.0, -130.0)]",None,None,None,None,None,None,None,None,None,None,,,,,0,0,0,0,,,,,0,10,10,147,,,,,,,,,,,,,,,space,0.7779441997408867,,,,,3,,,,,,,,,,,,,,,,,,,,,,,,,,,2194.7852345001884,None,,,,,,,,,15,19,Female,2021_Dec_15_1802,uniform_mix,2021.2.3,59.998908081405965,
c4_black_ref.xlsx,c4_black_t.xlsx,c4_black.xlsx,stims/black15.png,,15,351,0.4,40,"[(-90.0, 50.0), (-200.0, -10.0), (60.0, -110.0), (140.0, -20.0), (110.0, 50.0), (-100.0, -20.0), (-70.0, -140.0), (170.0, 40.0), (200.0, 120.0), (-90.0, 110.0), (110.0, 130.0), (-80.0, -80.0), (-160.0, 70.0), (50.0, 90.0), (-30.0, 110.0), (-10.0, -120.0), (190.0, -110.0), (90.0, -50.0), (-150.0, -110.0), (30.0, 140.0), (-124.16155824176153, 52.373258134989015), (-190.71965730062107, 81.31850811641775), (-17.62457456634352, 93.00940683755398), (-25.14325286280372, 124.50432074439455), (95.57197875992973, 99.17402156963573), (131.35132172045826, 158.2862316239153), (-120.96382319327451, -103.84419320949341), (-180.03498096951608, -120.84725571980914), (150.30571273959958, -86.59144120787056), (232.38447986386382, -132.1271537008179), (-65.3249199485804, -64.22811667889681), (-95.04093897853036, -85.40705975881481), (42.791759660584205, 75.11976922244169), (49.87261940499431, 102.05946668002659), (-10.38489064145313, -101.88170848839081), (-11.598563544620369, -142.61465354698893), (30.801890397545016, 118.72796252794674), (42.96921187444286, 159.19504525886623), (72.84794543804209, -39.210101197685276), (102.39984667874572, -60.74107422694542)]","[(-90.0, 50.0), (-200.0, -10.0), (60.0, -110.0), (140.0, -20.0), (110.0, 50.0), (-100.0, -20.0), (-70.0, -140.0), (170.0, 40.0), (200.0, 120.0), (-90.0, 110.0), (110.0, 130.0), (-80.0, -80.0), (-160.0, 70.0), (50.0, 90.0), (-30.0, 110.0), (-10.0, -120.0), (190.0, -110.0), (90.0, -50.0), (-150.0, -110.0), (30.0, 140.0)]","[(-124.16155824176153, 52.373258134989015), (-190.71965730062107, 81.31850811641775), (-17.62457456634352, 93.00940683755398), (-25.14325286280372, 124.50432074439455), (95.57197875992973, 99.17402156963573), (131.35132172045826, 158.2862316239153), (-120.96382319327451, -103.84419320949341), (-180.03498096951608, -120.84725571980914), (150.30571273959958, -86.59144120787056), (232.38447986386382, -132.1271537008179), (-65.3249199485804, -64.22811667889681), (-95.04093897853036, -85.40705975881481), (42.791759660584205, 75.11976922244169), (49.87261940499431, 102.05946668002659), (-10.38489064145313, -101.88170848839081), (-11.598563544620369, -142.61465354698893), (30.801890397545016, 118.72796252794674), (42.96921187444286, 159.19504525886623), (72.84794543804209, -39.210101197685276), (102.39984667874572, -60.74107422694542)]",0,radial,84.18,467.9,9.53,12.89,0.0855,3,,,,,0,0,0,0,,,,,0,11,11,14,,,,,,,,,,,,,,,space,0.6979489997029305,,,,,40,,,,,,,,,,,,,,,,,,,,,,,,,,,2197.309217600152,None,,,,,,,,,15,19,Female,2021_Dec_15_1802,uniform_mix,2021.2.3,59.998908081405965,
c4_black_ref.xlsx,c4_black_t.xlsx,c4_black.xlsx,stims/black133.png,,133,906,0.4,40,"[(140.0, -130.0), (-160.0, 140.0), (-10.0, -130.0), (150.0, 130.0), (-100.0, -30.0), (70.0, 140.0), (-70.0, 120.0), (160.0, -30.0), (80.0, 70.0), (200.0, 30.0), (-150.0, -10.0), (-110.0, -80.0), (20.0, 110.0), (100.0, -40.0), (50.0, -90.0), (-170.0, 50.0), (-110.0, 50.0), (-60.0, -100.0), (-200.0, -140.0), (120.0, 30.0), (117.86471760445747, -149.28557120396107), (-142.78121415965188, 168.90588997303348), (-30.43993975101884, -123.40758731253915), (168.85590027859928, 93.02595727205767), (-102.06679876969046, -6.798593234287182), (85.95517887795268, 127.84221855605219), (-46.50272094725561, 121.28200762393202), (170.50713003893816, -48.00161383814327), (90.82436121188609, 49.82823337947516), (205.22378425826, 4.8753747318040155), (-160.04841345566317, -33.742343518304295), (-104.06880355389106, -94.40466615598277), (10.252642163737079, 118.5831091580616), (106.24515237076226, -18.967901228930984), (67.8872003318082, -75.87364098058102), (-174.18815108081787, 22.512041731622787), (-114.98815647488291, 26.176463994034975), (-52.242506117474505, -112.59184344315462), (-201.00600256161, -174.58363985861376), (114.76270285745679, 43.48074219202677)]","[(140.0, -130.0), (-160.0, 140.0), (-10.0, -130.0), (150.0, 130.0), (-100.0, -30.0), (70.0, 140.0), (-70.0, 120.0), (160.0, -30.0), (80.0, 70.0), (200.0, 30.0), (-150.0, -10.0), (-110.0, -80.0), (20.0, 110.0), (100.0, -40.0), (50.0, -90.0), (-170.0, 50.0), (-110.0, 50.0), (-60.0, -100.0), (-200.0, -140.0), (120.0, 30.0)]","[(117.86471760445747, -149.28557120396107), (-142.78121415965188, 168.90588997303348), (-30.43993975101884, -123.40758731253915), (168.85590027859928, 93.02595727205767), (-102.06679876969046, -6.798593234287182), (85.95517887795268, 127.84221855605219), (-46.50272094725561, 121.28200762393202), (170.50713003893816, -48.00161383814327), (90.82436121188609, 49.82823337947516), (205.22378425826, 4.8753747318040155), (-160.04841345566317, -33.742343518304295), (-104.06880355389106, -94.40466615598277), (10.252642163737079, 118.5831091580616), (106.24515237076226, -18.967901228930984), (67.8872003318082, -75.87364098058102), (-174.18815108081787, 22.512041731622787), (-114.98815647488291, 26.176463994034975), (-52.242506117474505, -112.59184344315462), (-201.00600256161, -174.58363985861376), (114.76270285745679, 43.48074219202677)]",1,tangential,83.96,467.6,9.88,13.31,0.0855,1,,,,,0,0,0,0,,,,,0,12,12,132,,,,,,,,,,,,,,,space,0.5618413998745382,,,,,37,,,,,,,,,,,,,,,,,,,,,,,,,,,2200.69348620018,None,,,,,,,,,15,19,Female,2021_Dec_15_1802,uniform_mix,2021.2.3,59.998908081405965,
c4_black_ref.xlsx,c4_black_t.xlsx,c4_black.xlsx,stims/black21.png,,21,2888,0.4,44,"[(160.0, 60.0), (-150.0, 50.0), (-150.0, -130.0), (-50.0, 140.0), (90.0, 60.0), (-100.0, -40.0), (-60.0, 80.0), (-100.0, 20.0), (-30.0, -100.0), (100.0, 10.0), (-190.0, 130.0), (200.0, 140.0), (80.0, -120.0), (50.0, 100.0), (190.0, -130.0), (0.0, 120.0), (100.0, 130.0), (-80.0, -100.0), (120.0, -50.0), (-180.0, -30.0), (20.0, -120.0), (200.0, -20.0), (164.93275324380537, -30.406238343538494), (233.9856735722689, -12.399993367946884), (0.7404947913238882, 92.66225551135611), (-4.228879021356587, 134.55817447111582), (44.36001719234722, 86.6168894787762), (56.353307638993364, 112.54927067314036), (78.65293641394865, 119.83237296963857), (107.89870196959777, 157.29758117923978), (170.05951490926697, -100.49367852346856), (199.0718905627871, -158.2176954514187), (-146.32264017738146, -27.32258318638806), (-196.5109258894258, -44.55840577528455), (106.58862838406213, -42.247784523492015), (146.62037824798367, -61.31601300749271), (181.9228154686001, 113.15389772462338), (226.79655238661786, 155.69577778285728), (-70.30521385408119, -90.76121878372274), (-101.31527626252146, -112.84218506620303), (9.020166735015149, -97.63022178196917), (21.078200314874408, -148.21236133070056), (61.37627132565693, -105.74801606378796), (92.98746245695156, -136.9708827091868)]","[(160.0, 60.0), (-150.0, 50.0), (-150.0, -130.0), (-50.0, 140.0), (90.0, 60.0), (-100.0, -40.0), (-60.0, 80.0), (-100.0, 20.0), (-30.0, -100.0), (100.0, 10.0), (-190.0, 130.0), (200.0, 140.0), (80.0, -120.0), (50.0, 100.0), (190.0, -130.0), (0.0, 120.0), (100.0, 130.0), (-80.0, -100.0), (120.0, -50.0), (-180.0, -30.0), (20.0, -120.0), (200.0, -20.0)]","[(164.93275324380537, -30.406238343538494), (233.9856735722689, -12.399993367946884), (0.7404947913238882, 92.66225551135611), (-4.228879021356587, 134.55817447111582), (44.36001719234722, 86.6168894787762), (56.353307638993364, 112.54927067314036), (78.65293641394865, 119.83237296963857), (107.89870196959777, 157.29758117923978), (170.05951490926697, -100.49367852346856), (199.0718905627871, -158.2176954514187), (-146.32264017738146, -27.32258318638806), (-196.5109258894258, -44.55840577528455), (106.58862838406213, -42.247784523492015), (146.62037824798367, -61.31601300749271), (181.9228154686001, 113.15389772462338), (226.79655238661786, 155.69577778285728), (-70.30521385408119, -90.76121878372274), (-101.31527626252146, -112.84218506620303), (9.020166735015149, -97.63022178196917), (21.078200314874408, -148.21236133070056), (61.37627132565693, -105.74801606378796), (92.98746245695156, -136.9708827091868)]",0,radial,88.91,515.25,10.2,13.5,0.0854,1,,,,,0,0,0,0,,,,,0,13,13,20,,,,,,,,,,,,,,,space,0.5317323999479413,,,,,36,,,,,,,,,,,,,,,,,,,,,,,,,,,2204.5584467998706,None,,,,,,,,,15,19,Female,2021_Dec_15_1802,uniform_mix,2021.2.3,59.998908081405965,
c4_black_ref.xlsx,c4_black_t.xlsx,c4_black.xlsx,stims/black83.png,,83,980,0.4,38,"[(-30.0, 110.0), (-100.0, -50.0), (100.0, -30.0), (200.0, -130.0), (-20.0, -100.0), (20.0, 140.0), (110.0, -80.0), (-190.0, 100.0), (20.0, -120.0), (-150.0, -140.0), (-130.0, 30.0), (90.0, 100.0), (110.0, 30.0), (-70.0, -100.0), (180.0, 80.0), (-200.0, 0.0), (60.0, -90.0), (-80.0, 100.0), (180.0, -40.0), (69.32186478677242, -78.94739589809325), (-164.44918956353925, -104.62622601898002), (-130.40749738043957, -168.98746151412007), (177.9023037583396, 49.1868313534101), (168.29505291912525, 100.84138836762216), (104.6588374466887, 83.68221785756734), (74.5430646680359, 118.94022477946241), (-85.02595037222821, -82.90956537248358), (-63.082040300033384, -112.18790080944322), (-136.902796740456, 49.00694902969644), (-134.90285258820705, -1.2958331236600742), (-217.59975783758222, 22.08051660770687), (-203.85618640488167, -44.78007835620548), (173.27704585534534, -78.57380689550087), (198.2549523861794, -15.522909255508495), (-61.93981689055046, 111.21943440637708), (-103.76448684921317, 91.79422910769497), (111.33905430769133, 14.996862809108379), (102.34035096534409, 46.67589900819266)]","[(-30.0, 110.0), (-100.0, -50.0), (100.0, -30.0), (200.0, -130.0), (-20.0, -100.0), (20.0, 140.0), (110.0, -80.0), (-190.0, 100.0), (20.0, -120.0), (-150.0, -140.0), (-130.0, 30.0), (90.0, 100.0), (110.0, 30.0), (-70.0, -100.0), (180.0, 80.0), (-200.0, 0.0), (60.0, -90.0), (-80.0, 100.0), (180.0, -40.0)]","[(69.32186478677242, -78.94739589809325), (-164.44918956353925, -104.62622601898002), (-130.40749738043957, -168.98746151412007), (177.9023037583396, 49.1868313534101), (168.29505291912525, 100.84138836762216), (104.6588374466887, 83.68221785756734), (74.5430646680359, 118.94022477946241), (-85.02595037222821, -82.90956537248358), (-63.082040300033384, -112.18790080944322), (-136.902796740456, 49.00694902969644), (-134.90285258820705, -1.2958331236600742), (-217.59975783758222, 22.08051660770687), (-203.85618640488167, -44.78007835620548), (173.27704585534534, -78.57380689550087), (198.2549523861794, -15.522909255508495), (-61.93981689055046, 111.21943440637708), (-103.76448684921317, 91.79422910769497), (111.33905430769133, 14.996862809108379), (102.34035096534409, 46.67589900819266)]",0,tangential,80.55,444.64,10.01,13.41,0.0855,3,,,,,0,0,0,0,,,,,0,14,14,82,,,,,,,,,,,,,,,space,0.8740978999994695,,,,,32,,,,,,,,,,,,,,,,,,,,,,,,,,,2208.346588199958,None,,,,,,,,,15,19,Female,2021_Dec_15_1802,uniform_mix,2021.2.3,59.998908081405965,
c4_black_ref.xlsx,c4_black_t.xlsx,c4_black.xlsx,stims/black142.png,,142,3692,0.4,44,"[(20.0, 120.0), (200.0, 0.0), (-170.0, 60.0), (200.0, -100.0), (100.0, 10.0), (80.0, 140.0), (-160.0, 140.0), (90.0, 60.0), (-40.0, -140.0), (-100.0, 10.0), (100.0, -120.0), (-190.0, -130.0), (150.0, 70.0), (90.0, -60.0), (200.0, 140.0), (-110.0, -80.0), (-40.0, 100.0), (-150.0, -20.0), (10.0, -120.0), (130.0, -30.0), (-90.0, 100.0), (-60.0, -90.0), (39.22773279526329, 125.41164087759277), (200.1806187340451, -36.21990050458152), (-157.78316421763634, 98.13949834886876), (203.41964011002884, -128.46719355147548), (104.98235171982412, -1.430151876198451), (109.87549798304406, 118.67345614509745), (-146.19031226376745, 170.32295399753917), (106.88500616117821, 48.36490574307018), (-61.57447349334761, -145.64676461784555), (-101.22403350477055, 30.845843197706955), (90.54064129221081, -143.98107542221084), (-163.85745198971114, -161.51976848279622), (138.30489317161613, 94.49205961987325), (95.21319492942699, -43.02030132648434), (188.09967027745864, 175.99480958130926), (-105.4251232086518, -98.29369882115961), (-59.83227573282895, 87.14403854381713), (-146.95503167512283, -39.26045654374033), (33.84853847552789, -115.32013732859293), (125.24386442044148, -11.040601029196665), (-104.15073505731746, 94.6708074472002), (-39.17628450938233, -95.80674093538688)]","[(20.0, 120.0), (200.0, 0.0), (-170.0, 60.0), (200.0, -100.0), (100.0, 10.0), (80.0, 140.0), (-160.0, 140.0), (90.0, 60.0), (-40.0, -140.0), (-100.0, 10.0), (100.0, -120.0), (-190.0, -130.0), (150.0, 70.0), (90.0, -60.0), (200.0, 140.0), (-110.0, -80.0), (-40.0, 100.0), (-150.0, -20.0), (10.0, -120.0), (130.0, -30.0), (-90.0, 100.0), (-60.0, -90.0)]","[(39.22773279526329, 125.41164087759277), (200.1806187340451, -36.21990050458152), (-157.78316421763634, 98.13949834886876), (203.41964011002884, -128.46719355147548), (104.98235171982412, -1.430151876198451), (109.87549798304406, 118.67345614509745), (-146.19031226376745, 170.32295399753917), (106.88500616117821, 48.36490574307018), (-61.57447349334761, -145.64676461784555), (-101.22403350477055, 30.845843197706955), (90.54064129221081, -143.98107542221084), (-163.85745198971114, -161.51976848279622), (138.30489317161613, 94.49205961987325), (95.21319492942699, -43.02030132648434), (188.09967027745864, 175.99480958130926), (-105.4251232086518, -98.29369882115961), (-59.83227573282895, 87.14403854381713), (-146.95503167512283, -39.26045654374033), (33.84853847552789, -115.32013732859293), (125.24386442044148, -11.040601029196665), (-104.15073505731746, 94.6708074472002), (-39.17628450938233, -95.80674093538688)]",1,tangential,88.72,515.14,10.12,13.63,0.0854,2,,,,,0,0,0,0,,,,,0,15,15,141,,,,,,,,,,,,,,,space,0.713028300087899,,,,,38,,,,,,,,,,,,,,,,,,,,,,,,,,,2211.1067435001023,None,,,,,,,,,15,19,Female,2021_Dec_15_1802,uniform_mix,2021.2.3,59.998908081405965,
c4_black_ref.xlsx,c4_black_t.xlsx,c4_black.xlsx,stims/blacksub3.png,,3,None,0.4,2,"[(150.0, 110.0), (-60.0, -120.0)]",None,None,None,None,None,None,None,None,None,None,,,,,0,0,0,0,,,,,0,16,16,146,,,,,,,,,,,,,,,space,0.5110900001600385,,,,,2,,,,,,,,,,,,,,,,,,,,,,,,,,,2213.7656868002377,None,,,,,,,,,15,19,Female,2021_Dec_15_1802,uniform_mix,2021.2.3,59.998908081405965,
c4_black_ref.xlsx,c4_black_t.xlsx,c4_black.xlsx,stims/black54.png,,54,847,0.4,36,"[(-200.0, 120.0), (10.0, -110.0), (160.0, -50.0), (170.0, 80.0), (-40.0, 130.0), (10.0, 110.0), (120.0, 20.0), (190.0, -140.0), (-200.0, 20.0), (-120.0, 20.0), (60.0, -80.0), (-50.0, -140.0), (80.0, 90.0), (-100.0, 100.0), (60.0, -140.0), (-90.0, -50.0), (100.0, -60.0), (-170.0, -70.0), (-188.86714787758356, 94.93416958992934), (9.59555804632258, -89.3292034705455), (140.67869712600384, -50.94833039711689), (144.27083673877684, 74.156507351058), (-39.639329786480396, 108.83401258326792), (17.301192347460315, 92.98875887364522), (96.5245717392391, 21.833827124808863), (162.46220633380207, -110.61823384572423), (-170.51965168897271, 21.017653161615364), (-130.56622440802258, 30.300753596408963), (74.95668420247145, -88.85512781125902), (-52.8546488689323, -159.11154644680676), (91.4907171174932, 112.27280276317794), (-119.29177352399851, 126.56989110311736), (64.69967508762744, -164.89655249569597), (-109.24692657688654, -58.395076023140874), (107.80979648475771, -73.43763639978684), (-195.99098554590364, -82.80727905137749)]","[(-200.0, 120.0), (10.0, -110.0), (160.0, -50.0), (170.0, 80.0), (-40.0, 130.0), (10.0, 110.0), (120.0, 20.0), (190.0, -140.0), (-200.0, 20.0), (-120.0, 20.0), (60.0, -80.0), (-50.0, -140.0), (80.0, 90.0), (-100.0, 100.0), (60.0, -140.0), (-90.0, -50.0), (100.0, -60.0), (-170.0, -70.0)]","[(-188.86714787758356, 94.93416958992934), (9.59555804632258, -89.3292034705455), (140.67869712600384, -50.94833039711689), (144.27083673877684, 74.156507351058), (-39.639329786480396, 108.83401258326792), (17.301192347460315, 92.98875887364522), (96.5245717392391, 21.833827124808863), (162.46220633380207, -110.61823384572423), (-170.51965168897271, 21.017653161615364), (-130.56622440802258, 30.300753596408963), (74.95668420247145, -88.85512781125902), (-52.8546488689323, -159.11154644680676), (91.4907171174932, 112.27280276317794), (-119.29177352399851, 126.56989110311736), (64.69967508762744, -164.89655249569597), (-109.24692657688654, -58.395076023140874), (107.80979648475771, -73.43763639978684), (-195.99098554590364, -82.80727905137749)]",1,radial,79.15,422.24,9.75,13.1,0.0853,2,,,,,0,0,0,0,,,,,0,17,17,53,,,,,,,,,,,,,,,space,0.5081298998557031,,,,,38,,,,,,,,,,,,,,,,,,,,,,,,,,,2215.5780263999477,None,,,,,,,,,15,19,Female,2021_Dec_15_1802,uniform_mix,2021.2.3,59.998908081405965,
c4_black_ref.xlsx,c4_black_t.xlsx,c4_black.xlsx,stims/black31.png,,31,414,0.4,36,"[(170.0, -90.0), (200.0, 30.0), (-100.0, -50.0), (90.0, -90.0), (110.0, 10.0), (-180.0, 10.0), (-70.0, -100.0), (40.0, -140.0), (-150.0, -120.0), (-10.0, 100.0), (-10.0, -120.0), (-90.0, 50.0), (60.0, 120.0), (-100.0, 0.0), (170.0, 130.0), (-60.0, 110.0), (-170.0, 100.0), (120.0, 60.0), (142.71181959715412, 111.69312664375889), (-9.215343804555722, 86.7598212485475), (89.47454304289786, 9.226810937065826), (-117.79928035630397, -100.0603720224207), (47.81816152484507, 100.49695258613778), (-75.26436249427422, 135.40169201681778), (-14.051782849825436, -145.22932734467858), (130.78505027509533, 70.67383654463362), (-213.71000053418288, 4.54388222690741), (-114.888570157453, 6.587543027638363), (34.016161851085535, -111.35091420876395), (49.042518420152376, -158.19229349455617), (-154.94384342391442, 86.26441203900603), (-189.45967604770772, 120.12221913687821), (-69.74596865835689, 39.32163482325008), (-107.55230612895073, 57.9901470108396), (-65.69580542358045, -81.36311065745812), (-78.22301286308075, -110.53699522463779)]","[(170.0, -90.0), (200.0, 30.0), (-100.0, -50.0), (90.0, -90.0), (110.0, 10.0), (-180.0, 10.0), (-70.0, -100.0), (40.0, -140.0), (-150.0, -120.0), (-10.0, 100.0), (-10.0, -120.0), (-90.0, 50.0), (60.0, 120.0), (-100.0, 0.0), (170.0, 130.0), (-60.0, 110.0), (-170.0, 100.0), (120.0, 60.0)]","[(142.71181959715412, 111.69312664375889), (-9.215343804555722, 86.7598212485475), (89.47454304289786, 9.226810937065826), (-117.79928035630397, -100.0603720224207), (47.81816152484507, 100.49695258613778), (-75.26436249427422, 135.40169201681778), (-14.051782849825436, -145.22932734467858), (130.78505027509533, 70.67383654463362), (-213.71000053418288, 4.54388222690741), (-114.888570157453, 6.587543027638363), (34.016161851085535, -111.35091420876395), (49.042518420152376, -158.19229349455617), (-154.94384342391442, 86.26441203900603), (-189.45967604770772, 120.12221913687821), (-69.74596865835689, 39.32163482325008), (-107.55230612895073, 57.9901470108396), (-65.69580542358045, -81.36311065745812), (-78.22301286308075, -110.53699522463779)]",0.5,radial,77.76,421.12,9.35,12.51,0.0855,3,,,,,0,0,0,0,,,,,0,18,18,30,,,,,,,,,,,,,,,space,0.6907663997262716,,,,,45,,,,,,,,,,,,,,,,,,,,,,,,,,,2218.9036670001224,None,,,,,,,,,15,19,Female,2021_Dec_15_1802,uniform_mix,2021.2.3,59.998908081405965,
c4_black_ref.xlsx,c4_black_t.xlsx,c4_black.xlsx,stims/black70.png,,70,1585,0.4,44,"[(130.0, -140.0), (200.0, 30.0), (80.0, 60.0), (130.0, 60.0), (50.0, -90.0), (-200.0, -120.0), (-100.0, -70.0), (-90.0, 70.0), (110.0, 0.0), (-20.0, 100.0), (200.0, -70.0), (20.0, -130.0), (30.0, 100.0), (-180.0, 30.0), (180.0, 130.0), (-50.0, -90.0), (-160.0, 130.0), (-100.0, -130.0), (-120.0, -10.0), (-80.0, 140.0), (100.0, -70.0), (80.0, 120.0), (104.64115091694394, -129.83230124729982), (169.61523087768165, 28.68507123988233), (76.60777519363296, 47.93510082611972), (112.09418727033734, 42.79975193288665), (36.659889308777785, -82.43382687692537), (-165.99222810141475, -114.22534718933771), (-86.75996831758167, -66.58448431073431), (-78.58079822689103, 58.76758956533925), (97.69299046064455, 7.881429552278174), (-17.6510457450187, 80.84565226937674), (153.3767062126271, -60.8019782878227), (26.32087577088549, -151.74903921303832), (28.223163172318962, 114.78150290228638), (-198.27443270723512, 37.854248534691344), (217.57390101837817, 156.19679547638486), (-62.03534892598201, -94.71905061237597), (-195.42634531256556, 156.13280499463616), (-107.5676677568371, -145.90376284495912), (-131.78853372858333, -19.009624500958985), (-92.9721259863488, 163.6668933976512), (115.03552046504016, -76.92849352345198), (102.41597250513476, 146.76536347108006)]","[(130.0, -140.0), (200.0, 30.0), (80.0, 60.0), (130.0, 60.0), (50.0, -90.0), (-200.0, -120.0), (-100.0, -70.0), (-90.0, 70.0), (110.0, 0.0), (-20.0, 100.0), (200.0, -70.0), (20.0, -130.0), (30.0, 100.0), (-180.0, 30.0), (180.0, 130.0), (-50.0, -90.0), (-160.0, 130.0), (-100.0, -130.0), (-120.0, -10.0), (-80.0, 140.0), (100.0, -70.0), (80.0, 120.0)]","[(104.64115091694394, -129.83230124729982), (169.61523087768165, 28.68507123988233), (76.60777519363296, 47.93510082611972), (112.09418727033734, 42.79975193288665), (36.659889308777785, -82.43382687692537), (-165.99222810141475, -114.22534718933771), (-86.75996831758167, -66.58448431073431), (-78.58079822689103, 58.76758956533925), (97.69299046064455, 7.881429552278174), (-17.6510457450187, 80.84565226937674), (153.3767062126271, -60.8019782878227), (26.32087577088549, -151.74903921303832), (28.223163172318962, 114.78150290228638), (-198.27443270723512, 37.854248534691344), (217.57390101837817, 156.19679547638486), (-62.03534892598201, -94.71905061237597), (-195.42634531256556, 156.13280499463616), (-107.5676677568371, -145.90376284495912), (-131.78853372858333, -19.009624500958985), (-92.9721259863488, 163.6668933976512), (115.03552046504016, -76.92849352345198), (102.41597250513476, 146.76536347108006)]",1,radial,88.34,514.76,9.84,13.35,0.0855,2,,,,,0,0,0,0,,,,,0,19,19,69,,,,,,,,,,,,,,,space,0.5471777999773622,,,,,47,,,,,,,,,,,,,,,,,,,,,,,,,,,2221.9512408999726,None,,,,,,,,,15,19,Female,2021_Dec_15_1802,uniform_mix,2021.2.3,59.998908081405965,
c4_black_ref.xlsx,c4_black_t.xlsx,c4_black.xlsx,stims/black143.png,,143,3031,0.4,44,"[(-200.0, 40.0), (-180.0, -130.0), (70.0, 80.0), (180.0, -140.0), (120.0, -40.0), (-80.0, 60.0), (-200.0, 140.0), (100.0, 140.0), (150.0, 20.0), (-80.0, -60.0), (190.0, -40.0), (10.0, 120.0), (-130.0, -30.0), (-120.0, 30.0), (100.0, -100.0), (40.0, -130.0), (180.0, 110.0), (-110.0, 110.0), (-40.0, 140.0), (-30.0, -110.0), (-100.0, -110.0), (110.0, 60.0), (-189.26148024592257, 60.897100361629555), (-210.66518808393718, -99.40665782207697), (84.05410974538013, 78.74256713947703), (156.92285220842246, -175.23564104692906), (109.74513810466841, -61.69189564105254), (-65.7072864864221, 69.39278684278709), (-172.63198775368534, 191.27502028991785), (108.70802311807535, 118.0925016213141), (164.26379240594105, -3.9511946062414722), (-85.5296761208726, -46.58777972880395), (174.6426318203165, -68.12594213375857), (-11.928564857214027, 120.78590862176816), (-137.5135040869267, -47.74235017959974), (-130.56404070488557, 6.017405463249986), (106.61892055424897, -78.0171681933107), (60.10450681838728, -131.5052816317571), (161.79481486582029, 125.80236279842703), (-123.49246516281725, 89.74206334915365), (-68.98372839152414, 127.6413475695191), (-5.72470176709183, -119.99696726502462), (-83.34599013774017, -114.29114804187182), (105.371425799482, 72.42560195651906)]","[(-200.0, 40.0), (-180.0, -130.0), (70.0, 80.0), (180.0, -140.0), (120.0, -40.0), (-80.0, 60.0), (-200.0, 140.0), (100.0, 140.0), (150.0, 20.0), (-80.0, -60.0), (190.0, -40.0), (10.0, 120.0), (-130.0, -30.0), (-120.0, 30.0), (100.0, -100.0), (40.0, -130.0), (180.0, 110.0), (-110.0, 110.0), (-40.0, 140.0), (-30.0, -110.0), (-100.0, -110.0), (110.0, 60.0)]","[(-189.26148024592257, 60.897100361629555), (-210.66518808393718, -99.40665782207697), (84.05410974538013, 78.74256713947703), (156.92285220842246, -175.23564104692906), (109.74513810466841, -61.69189564105254), (-65.7072864864221, 69.39278684278709), (-172.63198775368534, 191.27502028991785), (108.70802311807535, 118.0925016213141), (164.26379240594105, -3.9511946062414722), (-85.5296761208726, -46.58777972880395), (174.6426318203165, -68.12594213375857), (-11.928564857214027, 120.78590862176816), (-137.5135040869267, -47.74235017959974), (-130.56404070488557, 6.017405463249986), (106.61892055424897, -78.0171681933107), (60.10450681838728, -131.5052816317571), (161.79481486582029, 125.80236279842703), (-123.49246516281725, 89.74206334915365), (-68.98372839152414, 127.6413475695191), (-5.72470176709183, -119.99696726502462), (-83.34599013774017, -114.29114804187182), (105.371425799482, 72.42560195651906)]",1,tangential,87.62,514.36,10.18,13.68,0.0855,3,,,,,0,0,0,0,,,,,0,20,20,142,,,,,,,,,,,,,,,space,0.468671299982816,,,,,50,,,,,,,,,,,,,,,,,,,,,,,,,,,2224.793417000212,None,,,,,,,,,15,19,Female,2021_Dec_15_1802,uniform_mix,2021.2.3,59.998908081405965,
c4_black_ref.xlsx,c4_black_t.xlsx,c4_black.xlsx,stims/black99.png,,99,2935,0.4,34,"[(120.0, -90.0), (-120.0, -70.0), (-140.0, -140.0), (-40.0, -100.0), (-120.0, 50.0), (-110.0, -20.0), (-180.0, 100.0), (80.0, 100.0), (0.0, 120.0), (-90.0, 110.0), (110.0, -10.0), (20.0, -140.0), (130.0, 40.0), (60.0, -90.0), (200.0, -40.0), (170.0, 110.0), (-180.0, -20.0), (-104.65898427961659, 65.01228200380862), (-183.86312454022487, 125.08263436035764), (204.3211847202651, -73.97395647503183), (96.28928341324588, 95.04470727117615), (-17.41413459783314, 123.2376754393565), (140.78986859489078, 134.76951654171614), (-113.72462835099998, -41.28693472824065), (124.29287629643247, 59.330404307835906), (114.39222744248022, 13.027251640007336), (-170.93073964650233, 8.57495243706444), (-185.05826435093644, -50.29926437418436), (42.175964166950195, -99.30459159491566), (70.65188797490502, -78.90227939269136), (1.0091882186502232, -131.72136430148586), (36.05733382921497, -136.42687094759054), (-78.73144778146137, 120.82441902561925), (-113.00418565516854, 102.42206956644797)]","[(120.0, -90.0), (-120.0, -70.0), (-140.0, -140.0), (-40.0, -100.0), (-120.0, 50.0), (-110.0, -20.0), (-180.0, 100.0), (80.0, 100.0), (0.0, 120.0), (-90.0, 110.0), (110.0, -10.0), (20.0, -140.0), (130.0, 40.0), (60.0, -90.0), (200.0, -40.0), (170.0, 110.0), (-180.0, -20.0)]","[(-104.65898427961659, 65.01228200380862), (-183.86312454022487, 125.08263436035764), (204.3211847202651, -73.97395647503183), (96.28928341324588, 95.04470727117615), (-17.41413459783314, 123.2376754393565), (140.78986859489078, 134.76951654171614), (-113.72462835099998, -41.28693472824065), (124.29287629643247, 59.330404307835906), (114.39222744248022, 13.027251640007336), (-170.93073964650233, 8.57495243706444), (-185.05826435093644, -50.29926437418436), (42.175964166950195, -99.30459159491566), (70.65188797490502, -78.90227939269136), (1.0091882186502232, -131.72136430148586), (36.05733382921497, -136.42687094759054), (-78.73144778146137, 120.82441902561925), (-113.00418565516854, 102.42206956644797)]",0.5,tangential,77.36,399.23,9.73,13.02,0.0852,3,,,,,0,0,0,0,,,,,0,21,21,98,,,,,,,,,,,,,,,space,0.8821517997421324,,,,,42,,,,,,,,,,,,,,,,,,,,,,,,,,,2227.663678199984,None,,,,,,,,,15,19,Female,2021_Dec_15_1802,uniform_mix,2021.2.3,59.998908081405965,
c4_black_ref.xlsx,c4_black_t.xlsx,c4_black.xlsx,stims/black6.png,,6,2786,0.4,36,"[(-140.0, -130.0), (-80.0, 100.0), (70.0, -140.0), (-180.0, 90.0), (90.0, -50.0), (-200.0, -60.0), (-170.0, 20.0), (-90.0, -70.0), (50.0, 130.0), (-30.0, -120.0), (140.0, 0.0), (160.0, -120.0), (70.0, 80.0), (160.0, 60.0), (0.0, 110.0), (-100.0, 10.0), (10.0, -100.0), (160.0, 140.0), (127.97957305017708, -108.39843477932735), (178.10644497527798, -143.2108056919103), (123.18178912668402, -7.767651230023441), (164.49203582823762, -3.2179488735246693), (4.194386958137562, -85.28383704139054), (6.0027776457331505, -118.82987114849257), (140.36564518724595, 42.70978907196772), (180.38028988284628, 77.15790692160256), (53.69919811794543, 62.30204926500455), (79.82877067840371, 88.14745362746511), (9.023679042281131, 95.44512133855739), (-2.1655915284069494, 125.98732647670923), (-90.96764096114119, 0.9298044781782429), (-111.52052202970091, 9.765903731159675), (154.7578371296027, 110.88784771420373), (175.8432214821559, 174.11836005777454), (-24.99822920133172, -93.34968012252637), (-34.27070891127949, -142.3991651207643)]","[(-140.0, -130.0), (-80.0, 100.0), (70.0, -140.0), (-180.0, 90.0), (90.0, -50.0), (-200.0, -60.0), (-170.0, 20.0), (-90.0, -70.0), (50.0, 130.0), (-30.0, -120.0), (140.0, 0.0), (160.0, -120.0), (70.0, 80.0), (160.0, 60.0), (0.0, 110.0), (-100.0, 10.0), (10.0, -100.0), (160.0, 140.0)]","[(127.97957305017708, -108.39843477932735), (178.10644497527798, -143.2108056919103), (123.18178912668402, -7.767651230023441), (164.49203582823762, -3.2179488735246693), (4.194386958137562, -85.28383704139054), (6.0027776457331505, -118.82987114849257), (140.36564518724595, 42.70978907196772), (180.38028988284628, 77.15790692160256), (53.69919811794543, 62.30204926500455), (79.82877067840371, 88.14745362746511), (9.023679042281131, 95.44512133855739), (-2.1655915284069494, 125.98732647670923), (-90.96764096114119, 0.9298044781782429), (-111.52052202970091, 9.765903731159675), (154.7578371296027, 110.88784771420373), (175.8432214821559, 174.11836005777454), (-24.99822920133172, -93.34968012252637), (-34.27070891127949, -142.3991651207643)]",0,radial,81.51,421.31,9.48,12.64,0.0854,2,,,,,0,0,0,0,,,,,0,22,22,5,,,,,,,,,,,,,,,space,0.6149646998383105,,,,,38,,,,,,,,,,,,,,,,,,,,,,,,,,,2231.0286754001863,None,,,,,,,,,15,19,Female,2021_Dec_15_1802,uniform_mix,2021.2.3,59.998908081405965,
c4_black_ref.xlsx,c4_black_t.xlsx,c4_black.xlsx,stims/black144.png,,144,2842,0.4,44,"[(70.0, -80.0), (200.0, 140.0), (-70.0, 80.0), (200.0, -10.0), (120.0, -50.0), (-140.0, -40.0), (-170.0, 130.0), (-40.0, -120.0), (190.0, -140.0), (-180.0, 20.0), (-100.0, 0.0), (110.0, 120.0), (-120.0, 50.0), (90.0, 50.0), (20.0, -140.0), (-100.0, -80.0), (90.0, -140.0), (100.0, 0.0), (140.0, 30.0), (-40.0, 130.0), (40.0, 100.0), (-170.0, -130.0), (57.67324150823967, -86.47856403055737), (232.40173260734238, 128.46681750499454), (-50.9588724889964, 92.38035332483528), (207.79955058947075, -39.125727202358746), (112.1006547728572, -77.09734928449488), (-132.64564877982866, -22.749151343802197), (-147.26288491058654, 153.26868580375336), (-61.07497475672187, -120.06130191420368), (179.21236964146294, -165.19030915703183), (-181.68452871212978, 52.82530916446751), (-97.14744481689678, 13.241002775603718), (85.2843156950732, 134.1059057814968), (-126.31317682466302, 24.63252930097704), (77.04527925259012, 57.15637844957247), (36.896174243015096, -137.02381983300398), (-86.94595792665976, -92.10325184446258), (118.0522097338011, -121.93515929359182), (94.26637857326295, 15.205880812041443), (135.9282256040766, 48.20638203856096), (-53.577981086450336, 119.11858260200445), (22.04897469814523, 101.42288708507581), (-147.7346761299711, -167.44450308663264)]","[(70.0, -80.0), (200.0, 140.0), (-70.0, 80.0), (200.0, -10.0), (120.0, -50.0), (-140.0, -40.0), (-170.0, 130.0), (-40.0, -120.0), (190.0, -140.0), (-180.0, 20.0), (-100.0, 0.0), (110.0, 120.0), (-120.0, 50.0), (90.0, 50.0), (20.0, -140.0), (-100.0, -80.0), (90.0, -140.0), (100.0, 0.0), (140.0, 30.0), (-40.0, 130.0), (40.0, 100.0), (-170.0, -130.0)]","[(57.67324150823967, -86.47856403055737), (232.40173260734238, 128.46681750499454), (-50.9588724889964, 92.38035332483528), (207.79955058947075, -39.125727202358746), (112.1006547728572, -77.09734928449488), (-132.64564877982866, -22.749151343802197), (-147.26288491058654, 153.26868580375336), (-61.07497475672187, -120.06130191420368), (179.21236964146294, -165.19030915703183), (-181.68452871212978, 52.82530916446751), (-97.14744481689678, 13.241002775603718), (85.2843156950732, 134.1059057814968), (-126.31317682466302, 24.63252930097704), (77.04527925259012, 57.15637844957247), (36.896174243015096, -137.02381983300398), (-86.94595792665976, -92.10325184446258), (118.0522097338011, -121.93515929359182), (94.26637857326295, 15.205880812041443), (135.9282256040766, 48.20638203856096), (-53.577981086450336, 119.11858260200445), (22.04897469814523, 101.42288708507581), (-147.7346761299711, -167.44450308663264)]",1,tangential,88.05,513.44,9.93,13.43,0.0857,4,,,,,0,0,0,0,,,,,0,23,23,143,,,,,,,,,,,,,,,space,0.485362000297755,,,,,49,,,,,,,,,,,,,,,,,,,,,,,,,,,2233.944267500192,None,,,,,,,,,15,19,Female,2021_Dec_15_1802,uniform_mix,2021.2.3,59.998908081405965,
c4_black_ref.xlsx,c4_black_t.xlsx,c4_black.xlsx,stims/black22.png,,22,2719,0.4,44,"[(200.0, 70.0), (-150.0, 60.0), (-90.0, 60.0), (110.0, 60.0), (-10.0, -110.0), (-200.0, 0.0), (-180.0, -140.0), (70.0, -90.0), (-160.0, -60.0), (-90.0, 120.0), (100.0, 10.0), (100.0, -40.0), (60.0, 110.0), (-70.0, -140.0), (-100.0, -20.0), (-100.0, -90.0), (50.0, -140.0), (-190.0, 140.0), (170.0, -80.0), (170.0, 0.0), (120.0, 130.0), (-10.0, 140.0), (1.4933969712859323, 121.47850304524661), (-7.986913229062019, 162.0034471534176), (133.57681735858003, -64.82476972891013), (201.81989215961624, -90.12717072239826), (-90.41828631268734, -12.775410062339553), (-114.99574472977798, -14.45683983073235), (50.085700270886946, -122.22938801303782), (53.00073153170007, -170.00061532240613), (-169.8104592119154, 115.36450544178236), (-223.89555339496474, 141.11940404734244), (58.455363446100236, 96.09180917187452), (75.57029820881787, 129.7177919383796), (118.90115855009756, 107.19345679358236), (132.2348630150386, 158.32645174826425), (143.70497338308826, 8.476685028990584), (186.31294597575013, -14.131062943154628), (-53.85775789201092, -106.82117809682845), (-83.70089702576541, -167.93375647567998), (-79.47647835329443, -79.18835939008225), (-118.0912725121875, -114.39423270960631), (88.80794207712664, -30.214321884237645), (112.55375483808646, -49.839040401497826)]","[(200.0, 70.0), (-150.0, 60.0), (-90.0, 60.0), (110.0, 60.0), (-10.0, -110.0), (-200.0, 0.0), (-180.0, -140.0), (70.0, -90.0), (-160.0, -60.0), (-90.0, 120.0), (100.0, 10.0), (100.0, -40.0), (60.0, 110.0), (-70.0, -140.0), (-100.0, -20.0), (-100.0, -90.0), (50.0, -140.0), (-190.0, 140.0), (170.0, -80.0), (170.0, 0.0), (120.0, 130.0), (-10.0, 140.0)]","[(1.4933969712859323, 121.47850304524661), (-7.986913229062019, 162.0034471534176), (133.57681735858003, -64.82476972891013), (201.81989215961624, -90.12717072239826), (-90.41828631268734, -12.775410062339553), (-114.99574472977798, -14.45683983073235), (50.085700270886946, -122.22938801303782), (53.00073153170007, -170.00061532240613), (-169.8104592119154, 115.36450544178236), (-223.89555339496474, 141.11940404734244), (58.455363446100236, 96.09180917187452), (75.57029820881787, 129.7177919383796), (118.90115855009756, 107.19345679358236), (132.2348630150386, 158.32645174826425), (143.70497338308826, 8.476685028990584), (186.31294597575013, -14.131062943154628), (-53.85775789201092, -106.82117809682845), (-83.70089702576541, -167.93375647567998), (-79.47647835329443, -79.18835939008225), (-118.0912725121875, -114.39423270960631), (88.80794207712664, -30.214321884237645), (112.55375483808646, -49.839040401497826)]",0,radial,86.33,514.64,10.07,13.53,0.0855,2,,,,,0,0,0,0,,,,,0,24,24,21,,,,,,,,,,,,,,,space,0.6181239001452923,,,,,50,,,,,,,,,,,,,,,,,,,,,,,,,,,2237.3553277999163,None,,,,,,,,,15,19,Female,2021_Dec_15_1802,uniform_mix,2021.2.3,59.998908081405965,
c4_black_ref.xlsx,c4_black_t.xlsx,c4_black.xlsx,stims/black140.png,,140,1976,0.4,42,"[(80.0, 130.0), (-100.0, -140.0), (190.0, 50.0), (-200.0, 130.0), (-10.0, 140.0), (100.0, -30.0), (-120.0, -80.0), (80.0, -120.0), (150.0, -90.0), (-40.0, -110.0), (-110.0, 90.0), (-200.0, -100.0), (-190.0, 10.0), (-50.0, 110.0), (20.0, -110.0), (-120.0, -20.0), (30.0, 100.0), (-100.0, 20.0), (180.0, 140.0), (120.0, 20.0), (80.0, 70.0), (109.91361247666607, 119.21778345760052), (-113.61470914235814, -121.27017812616288), (207.33823550352875, 27.21779923969771), (-199.50030686180088, 160.09991693006938), (21.280107469152625, 146.99259218308939), (96.26603432222147, -40.62377444510369), (-141.3442567610279, -60.64420102318657), (51.30299101994403, -130.60640372654564), (135.99217227506307, -123.47645811183213), (-59.332594065116965, -99.64171093772282), (-130.32395307216362, 73.16442475209672), (-177.14381533086876, -142.79614960496932), (-199.6084082996732, -11.257838050334612), (-62.40952281172241, 103.72441161607753), (39.952457485721226, -110.38947533099284), (-107.08977294428007, -31.3789083873867), (11.404788994626628, 102.5885318679015), (-96.40279937611761, 4.738121012081962), (173.62974301027623, 177.01593414210515), (110.21760700896185, 39.8878705917041), (64.42048042050465, 77.28756343335652)]","[(80.0, 130.0), (-100.0, -140.0), (190.0, 50.0), (-200.0, 130.0), (-10.0, 140.0), (100.0, -30.0), (-120.0, -80.0), (80.0, -120.0), (150.0, -90.0), (-40.0, -110.0), (-110.0, 90.0), (-200.0, -100.0), (-190.0, 10.0), (-50.0, 110.0), (20.0, -110.0), (-120.0, -20.0), (30.0, 100.0), (-100.0, 20.0), (180.0, 140.0), (120.0, 20.0), (80.0, 70.0)]","[(109.91361247666607, 119.21778345760052), (-113.61470914235814, -121.27017812616288), (207.33823550352875, 27.21779923969771), (-199.50030686180088, 160.09991693006938), (21.280107469152625, 146.99259218308939), (96.26603432222147, -40.62377444510369), (-141.3442567610279, -60.64420102318657), (51.30299101994403, -130.60640372654564), (135.99217227506307, -123.47645811183213), (-59.332594065116965, -99.64171093772282), (-130.32395307216362, 73.16442475209672), (-177.14381533086876, -142.79614960496932), (-199.6084082996732, -11.257838050334612), (-62.40952281172241, 103.72441161607753), (39.952457485721226, -110.38947533099284), (-107.08977294428007, -31.3789083873867), (11.404788994626628, 102.5885318679015), (-96.40279937611761, 4.738121012081962), (173.62974301027623, 177.01593414210515), (110.21760700896185, 39.8878705917041), (64.42048042050465, 77.28756343335652)]",1,tangential,86.14,491.51,9.96,13.43,0.0855,4,,,,,0,0,0,0,,,,,0,25,25,139,,,,,,,,,,,,,,,space,0.6190085001289845,,,,,57,,,,,,,,,,,,,,,,,,,,,,,,,,,2240.3633997002617,None,,,,,,,,,15,19,Female,2021_Dec_15_1802,uniform_mix,2021.2.3,59.998908081405965,
c4_black_ref.xlsx,c4_black_t.xlsx,c4_black.xlsx,stims/black47.png,,47,1104,0.4,44,"[(-10.0, 120.0), (-150.0, 60.0), (200.0, 110.0), (-70.0, -80.0), (100.0, -70.0), (160.0, -130.0), (60.0, 90.0), (-200.0, -70.0), (190.0, 20.0), (-80.0, 70.0), (110.0, 120.0), (70.0, -140.0), (0.0, -130.0), (-130.0, -140.0), (140.0, -30.0), (-60.0, -140.0), (-190.0, 140.0), (-60.0, 130.0), (-100.0, 20.0), (100.0, 20.0), (40.0, 140.0), (-110.0, -30.0), (-51.29414352935091, -125.51726109532683), (25.421808194042338, 113.25469505648908), (160.53547385550573, 20.80244014157958), (52.408888240818044, -124.79261919168995), (139.32395578058367, -122.24456343708952), (117.14580327349647, -25.34561381590318), (-95.3132908684028, 88.84076782725856), (-125.80115254305264, -40.44639760929476), (67.45359603567792, 101.19502389113639), (123.18222371522593, 24.366661438359248), (-121.17856110951124, 20.226015974512165), (-74.07210786329223, 145.74249331015506), (99.46893643117558, 106.3325703373189), (138.8841525725844, 146.94619662660324), (-164.12732576494477, -60.01705069415067), (-221.09967360128044, -79.3458581437728), (-4.248580339094996, -106.05061324501739), (1.0583525910641907, -143.20188977015977), (-150.7433516784661, 107.94186969716856), (-209.01644179786263, 175.18015537219327), (-109.30504995368123, -104.97441778014388), (-163.2418111178857, -164.0095427366423)]","[(-10.0, 120.0), (-150.0, 60.0), (200.0, 110.0), (-70.0, -80.0), (100.0, -70.0), (160.0, -130.0), (60.0, 90.0), (-200.0, -70.0), (190.0, 20.0), (-80.0, 70.0), (110.0, 120.0), (70.0, -140.0), (0.0, -130.0), (-130.0, -140.0), (140.0, -30.0), (-60.0, -140.0), (-190.0, 140.0), (-60.0, 130.0), (-100.0, 20.0), (100.0, 20.0), (40.0, 140.0), (-110.0, -30.0)]","[(-51.29414352935091, -125.51726109532683), (25.421808194042338, 113.25469505648908), (160.53547385550573, 20.80244014157958), (52.408888240818044, -124.79261919168995), (139.32395578058367, -122.24456343708952), (117.14580327349647, -25.34561381590318), (-95.3132908684028, 88.84076782725856), (-125.80115254305264, -40.44639760929476), (67.45359603567792, 101.19502389113639), (123.18222371522593, 24.366661438359248), (-121.17856110951124, 20.226015974512165), (-74.07210786329223, 145.74249331015506), (99.46893643117558, 106.3325703373189), (138.8841525725844, 146.94619662660324), (-164.12732576494477, -60.01705069415067), (-221.09967360128044, -79.3458581437728), (-4.248580339094996, -106.05061324501739), (1.0583525910641907, -143.20188977015977), (-150.7433516784661, 107.94186969716856), (-209.01644179786263, 175.18015537219327), (-109.30504995368123, -104.97441778014388), (-163.2418111178857, -164.0095427366423)]",0.5,radial,88.11,514.43,10.17,13.67,0.0855,3,,,,,0,0,0,0,,,,,0,26,26,46,,,,,,,,,,,,,,,space,0.5389135000295937,,,,,56,,,,,,,,,,,,,,,,,,,,,,,,,,,2243.4478939999826,None,,,,,,,,,15,19,Female,2021_Dec_15_1802,uniform_mix,2021.2.3,59.998908081405965,
c4_black_ref.xlsx,c4_black_t.xlsx,c4_black.xlsx,stims/black14.png,,14,63,0.4,40,"[(-80.0, 110.0), (10.0, 100.0), (-200.0, -60.0), (110.0, -70.0), (110.0, -20.0), (-110.0, -120.0), (30.0, -100.0), (-10.0, -120.0), (-100.0, 60.0), (70.0, 140.0), (190.0, -140.0), (100.0, -140.0), (200.0, -50.0), (100.0, 30.0), (170.0, 80.0), (-60.0, -90.0), (100.0, 90.0), (-110.0, -20.0), (-170.0, 10.0), (-160.0, 120.0), (85.05175744866723, 29.193257090899653), (122.57911427843642, 33.96682538896632), (81.2917868088835, 81.87936931545977), (125.20953945124342, 109.27814750917913), (142.9283440697722, 72.15312182069924), (199.63415616579698, 83.52368964780948), (-48.235069475981554, -72.68230626954067), (-60.11136025659697, -106.79398133272065), (-128.2235536663171, 97.64853368511889), (-195.55117635157382, 137.11781609681043), (-87.95125827091799, -16.93135548673264), (-130.077699611909, -27.710354678563366), (74.33679513281332, -107.13307168079146), (115.71424477482797, -158.00078400654215), (155.77882476418563, -109.41696992358632), (217.2283304282976, -176.47110490503815), (154.63900575666688, -49.579674561506685), (223.30714826687483, -38.50836081774594), (-146.1243803448294, 21.956110298507713), (-189.4033531741668, 3.4583399968723576)]","[(-80.0, 110.0), (10.0, 100.0), (-200.0, -60.0), (110.0, -70.0), (110.0, -20.0), (-110.0, -120.0), (30.0, -100.0), (-10.0, -120.0), (-100.0, 60.0), (70.0, 140.0), (190.0, -140.0), (100.0, -140.0), (200.0, -50.0), (100.0, 30.0), (170.0, 80.0), (-60.0, -90.0), (100.0, 90.0), (-110.0, -20.0), (-170.0, 10.0), (-160.0, 120.0)]","[(85.05175744866723, 29.193257090899653), (122.57911427843642, 33.96682538896632), (81.2917868088835, 81.87936931545977), (125.20953945124342, 109.27814750917913), (142.9283440697722, 72.15312182069924), (199.63415616579698, 83.52368964780948), (-48.235069475981554, -72.68230626954067), (-60.11136025659697, -106.79398133272065), (-128.2235536663171, 97.64853368511889), (-195.55117635157382, 137.11781609681043), (-87.95125827091799, -16.93135548673264), (-130.077699611909, -27.710354678563366), (74.33679513281332, -107.13307168079146), (115.71424477482797, -158.00078400654215), (155.77882476418563, -109.41696992358632), (217.2283304282976, -176.47110490503815), (154.63900575666688, -49.579674561506685), (223.30714826687483, -38.50836081774594), (-146.1243803448294, 21.956110298507713), (-189.4033531741668, 3.4583399968723576)]",0,radial,85.52,467.91,10.16,13.53,0.0855,2,,,,,0,0,0,0,,,,,0,27,27,13,,,,,,,,,,,,,,,space,0.5548682003282011,,,,,42,,,,,,,,,,,,,,,,,,,,,,,,,,,2246.460272999946,None,,,,,,,,,15,19,Female,2021_Dec_15_1802,uniform_mix,2021.2.3,59.998908081405965,
c4_black_ref.xlsx,c4_black_t.xlsx,c4_black.xlsx,stims/blacksub5.png,,5,None,0.4,3,"[(-140.0, 0.0), (160.0, -20.0), (190.0, 130.0)]",None,None,None,None,None,None,None,None,None,None,,,,,0,0,0,0,,,,,0,28,28,148,,,,,,,,,,,,,,,space,0.4862089999951422,,,,,3,,,,,,,,,,,,,,,,,,,,,,,,,,,2249.381345300004,None,,,,,,,,,15,19,Female,2021_Dec_15_1802,uniform_mix,2021.2.3,59.998908081405965,
c4_black_ref.xlsx,c4_black_t.xlsx,c4_black.xlsx,stims/black131.png,,131,1554,0.4,38,"[(50.0, -90.0), (190.0, 50.0), (-30.0, -140.0), (-120.0, 30.0), (-190.0, 0.0), (0.0, -100.0), (-80.0, 70.0), (-200.0, 120.0), (-110.0, -40.0), (-90.0, 130.0), (100.0, 50.0), (180.0, -100.0), (-190.0, -100.0), (110.0, -130.0), (-80.0, -100.0), (120.0, 130.0), (-10.0, 130.0), (120.0, -40.0), (50.0, 100.0), (37.267203079050276, -104.63061292215883), (208.19901012135153, 34.10262072786841), (-48.92899992097459, -130.37412686109857), (-117.49156174991636, 57.67275779057418), (-186.5038537090939, 19.288608623177822), (-10.977174516402542, -100.0022938608077), (-66.58776271039703, 88.21092611484468), (-171.06701893154968, 153.40886113067756), (-121.75526845415854, -29.27084920271008), (-106.18408015544237, 109.65274178731492), (84.6193958027192, 70.41706373496235), (199.1280385329496, -82.15454738911203), (-171.96344519747538, -115.47102106068465), (143.08722784271544, -108.6176301158591), (-56.59402023237402, -113.3620462320107), (101.72755556473183, 148.24356605205023), (-35.465574116092725, 134.20515775582308), (114.78325385307089, -21.830117681512803), (37.312472763857514, 110.19853199450407)]","[(50.0, -90.0), (190.0, 50.0), (-30.0, -140.0), (-120.0, 30.0), (-190.0, 0.0), (0.0, -100.0), (-80.0, 70.0), (-200.0, 120.0), (-110.0, -40.0), (-90.0, 130.0), (100.0, 50.0), (180.0, -100.0), (-190.0, -100.0), (110.0, -130.0), (-80.0, -100.0), (120.0, 130.0), (-10.0, 130.0), (120.0, -40.0), (50.0, 100.0)]","[(37.267203079050276, -104.63061292215883), (208.19901012135153, 34.10262072786841), (-48.92899992097459, -130.37412686109857), (-117.49156174991636, 57.67275779057418), (-186.5038537090939, 19.288608623177822), (-10.977174516402542, -100.0022938608077), (-66.58776271039703, 88.21092611484468), (-171.06701893154968, 153.40886113067756), (-121.75526845415854, -29.27084920271008), (-106.18408015544237, 109.65274178731492), (84.6193958027192, 70.41706373496235), (199.1280385329496, -82.15454738911203), (-171.96344519747538, -115.47102106068465), (143.08722784271544, -108.6176301158591), (-56.59402023237402, -113.3620462320107), (101.72755556473183, 148.24356605205023), (-35.465574116092725, 134.20515775582308), (114.78325385307089, -21.830117681512803), (37.312472763857514, 110.19853199450407)]",1,tangential,79.88,444.43,9.88,13.32,0.0855,3,,,,,0,0,0,0,,,,,0,29,29,130,,,,,,,,,,,,,,,space,0.5297441999427974,,,,,38,,,,,,,,,,,,,,,,,,,,,,,,,,,2251.2979031000286,None,,,,,,,,,15,19,Female,2021_Dec_15_1802,uniform_mix,2021.2.3,59.998908081405965,
c4_black_ref.xlsx,c4_black_t.xlsx,c4_black.xlsx,stims/black62.png,,62,475,0.4,40,"[(-60.0, 80.0), (-60.0, 140.0), (110.0, 50.0), (-100.0, 20.0), (170.0, 100.0), (100.0, -20.0), (70.0, 110.0), (120.0, -70.0), (160.0, 10.0), (-90.0, -50.0), (-170.0, -90.0), (-150.0, -20.0), (0.0, 100.0), (200.0, -60.0), (-30.0, -110.0), (-90.0, -120.0), (110.0, -140.0), (-190.0, 50.0), (40.0, -100.0), (-130.0, 100.0), (-45.61634278768709, 70.06387682653306), (-55.555407378846084, 121.91181147285616), (95.75666865185396, 45.026348216123196), (-76.81376262910146, 17.8477172351597), (144.25561379293754, 75.35984788859598), (76.5141994772795, -17.92120244847539), (53.96284475327593, 95.00386889380248), (98.28669839350168, -62.48701856685605), (134.73278957381797, 19.915200093671192), (-73.30014316737453, -36.57717704589794), (-192.1465021248101, -115.26965036327255), (-164.21768080899705, -32.06807376693927), (-4.142592372563444, 116.13773316738036), (248.15123244907258, -74.99472978584595), (-37.13878440964251, -128.16451246645548), (-100.74742827562854, -142.58644052160705), (135.90417087660657, -169.67686987184445), (-218.7518161628372, 53.41198180025733), (48.75489056128928, -122.33169490843194), (-149.91342377356779, 116.31737105200509)]","[(-60.0, 80.0), (-60.0, 140.0), (110.0, 50.0), (-100.0, 20.0), (170.0, 100.0), (100.0, -20.0), (70.0, 110.0), (120.0, -70.0), (160.0, 10.0), (-90.0, -50.0), (-170.0, -90.0), (-150.0, -20.0), (0.0, 100.0), (200.0, -60.0), (-30.0, -110.0), (-90.0, -120.0), (110.0, -140.0), (-190.0, 50.0), (40.0, -100.0), (-130.0, 100.0)]","[(-45.61634278768709, 70.06387682653306), (-55.555407378846084, 121.91181147285616), (95.75666865185396, 45.026348216123196), (-76.81376262910146, 17.8477172351597), (144.25561379293754, 75.35984788859598), (76.5141994772795, -17.92120244847539), (53.96284475327593, 95.00386889380248), (98.28669839350168, -62.48701856685605), (134.73278957381797, 19.915200093671192), (-73.30014316737453, -36.57717704589794), (-192.1465021248101, -115.26965036327255), (-164.21768080899705, -32.06807376693927), (-4.142592372563444, 116.13773316738036), (248.15123244907258, -74.99472978584595), (-37.13878440964251, -128.16451246645548), (-100.74742827562854, -142.58644052160705), (135.90417087660657, -169.67686987184445), (-218.7518161628372, 53.41198180025733), (48.75489056128928, -122.33169490843194), (-149.91342377356779, 116.31737105200509)]",1,radial,82.63,467.84,9.48,12.9,0.0855,2,,,,,0,0,0,0,,,,,0,30,30,61,,,,,,,,,,,,,,,space,0.5313258999958634,,,,,36,,,,,,,,,,,,,,,,,,,,,,,,,,,2254.538636600133,None,,,,,,,,,15,19,Female,2021_Dec_15_1802,uniform_mix,2021.2.3,59.998908081405965,
c4_black_ref.xlsx,c4_black_t.xlsx,c4_black.xlsx,stims/black38.png,,38,1742,0.4,40,"[(30.0, -100.0), (-50.0, -90.0), (110.0, 100.0), (-50.0, 130.0), (150.0, 10.0), (-140.0, 80.0), (200.0, -50.0), (-80.0, 90.0), (190.0, -140.0), (-110.0, -50.0), (190.0, 100.0), (-120.0, 20.0), (100.0, -60.0), (-100.0, -110.0), (-190.0, -140.0), (40.0, 120.0), (-20.0, -130.0), (80.0, -130.0), (100.0, 30.0), (-190.0, -20.0), (73.10839302961892, -107.66170236703377), (-126.58873827874493, 57.48139916743696), (-12.764998873733663, -107.96990447842865), (-63.669766460324816, 83.33282934589533), (-168.16378935660822, -111.02363616337314), (49.922121563555976, 133.11035056360925), (-136.35094439659193, -63.981059693871046), (225.33142119674218, 112.12554916916895), (-209.87488991402142, -21.95363357578113), (111.71221282919645, -74.3607076241781), (91.84240760681764, 18.368843033686975), (117.95905981230572, 28.64115318862377), (-77.15821491115825, -101.32299600447347), (-117.46637480141686, -129.59246965895622), (157.5117302913643, -130.1316952025905), (224.55844927110013, -151.62161034058124), (179.59160655749199, -35.534936259315025), (233.0025563547943, -56.705155329824834), (-108.92399243308971, 12.15445586072412), (-143.6540833254559, 19.982394451679383)]","[(30.0, -100.0), (-50.0, -90.0), (110.0, 100.0), (-50.0, 130.0), (150.0, 10.0), (-140.0, 80.0), (200.0, -50.0), (-80.0, 90.0), (190.0, -140.0), (-110.0, -50.0), (190.0, 100.0), (-120.0, 20.0), (100.0, -60.0), (-100.0, -110.0), (-190.0, -140.0), (40.0, 120.0), (-20.0, -130.0), (80.0, -130.0), (100.0, 30.0), (-190.0, -20.0)]","[(73.10839302961892, -107.66170236703377), (-126.58873827874493, 57.48139916743696), (-12.764998873733663, -107.96990447842865), (-63.669766460324816, 83.33282934589533), (-168.16378935660822, -111.02363616337314), (49.922121563555976, 133.11035056360925), (-136.35094439659193, -63.981059693871046), (225.33142119674218, 112.12554916916895), (-209.87488991402142, -21.95363357578113), (111.71221282919645, -74.3607076241781), (91.84240760681764, 18.368843033686975), (117.95905981230572, 28.64115318862377), (-77.15821491115825, -101.32299600447347), (-117.46637480141686, -129.59246965895622), (157.5117302913643, -130.1316952025905), (224.55844927110013, -151.62161034058124), (179.59160655749199, -35.534936259315025), (233.0025563547943, -56.705155329824834), (-108.92399243308971, 12.15445586072412), (-143.6540833254559, 19.982394451679383)]",0.5,radial,85.2,468.05,10.27,13.66,0.0855,2,,,,,0,0,0,0,,,,,0,31,31,37,,,,,,,,,,,,,,,space,0.5573105001822114,,,,,45,,,,,,,,,,,,,,,,,,,,,,,,,,,2257.2734183003195,None,,,,,,,,,15,19,Female,2021_Dec_15_1802,uniform_mix,2021.2.3,59.998908081405965,
c4_black_ref.xlsx,c4_black_t.xlsx,c4_black.xlsx,stims/black71.png,,71,2987,0.4,44,"[(110.0, -140.0), (40.0, 140.0), (110.0, 40.0), (200.0, -120.0), (-10.0, 100.0), (-120.0, 60.0), (-50.0, 140.0), (140.0, -10.0), (80.0, -70.0), (-60.0, 80.0), (150.0, 100.0), (-80.0, -60.0), (-190.0, 40.0), (80.0, 100.0), (-190.0, 130.0), (200.0, 30.0), (50.0, -110.0), (-60.0, -110.0), (-100.0, 10.0), (-180.0, -140.0), (-130.0, -50.0), (-10.0, -100.0), (80.66830003895289, -111.16834780848636), (27.664156448367603, 117.73112431052049), (91.010062189252, 39.34473424205398), (152.07919167252817, -88.83198755555188), (-9.435072982897934, 80.80832611565971), (-107.95941543948102, 47.30244288768934), (-51.11295673948926, 118.19483277385203), (118.8636344007281, 0.5083363326623243), (74.53548387634035, -58.570719776239706), (-47.229966906239106, 64.84979121613196), (127.39155307742378, 97.02843707003277), (-88.4589977369718, -75.4957578728464), (-226.12312707527911, 39.486761929716955), (94.62106582864368, 106.21913580783033), (-207.48916518543737, 148.61131226920122), (239.94412474913048, 36.49899257077304), (62.32362548175595, -127.46977368411407), (-69.83010941173059, -131.00465660448737), (-119.14440324245045, 6.105825430707894), (-222.5835151549561, -159.40978347441043), (-144.00743762928124, -54.77746937598281), (-12.43321568968513, -110.11237220674687)]","[(110.0, -140.0), (40.0, 140.0), (110.0, 40.0), (200.0, -120.0), (-10.0, 100.0), (-120.0, 60.0), (-50.0, 140.0), (140.0, -10.0), (80.0, -70.0), (-60.0, 80.0), (150.0, 100.0), (-80.0, -60.0), (-190.0, 40.0), (80.0, 100.0), (-190.0, 130.0), (200.0, 30.0), (50.0, -110.0), (-60.0, -110.0), (-100.0, 10.0), (-180.0, -140.0), (-130.0, -50.0), (-10.0, -100.0)]","[(80.66830003895289, -111.16834780848636), (27.664156448367603, 117.73112431052049), (91.010062189252, 39.34473424205398), (152.07919167252817, -88.83198755555188), (-9.435072982897934, 80.80832611565971), (-107.95941543948102, 47.30244288768934), (-51.11295673948926, 118.19483277385203), (118.8636344007281, 0.5083363326623243), (74.53548387634035, -58.570719776239706), (-47.229966906239106, 64.84979121613196), (127.39155307742378, 97.02843707003277), (-88.4589977369718, -75.4957578728464), (-226.12312707527911, 39.486761929716955), (94.62106582864368, 106.21913580783033), (-207.48916518543737, 148.61131226920122), (239.94412474913048, 36.49899257077304), (62.32362548175595, -127.46977368411407), (-69.83010941173059, -131.00465660448737), (-119.14440324245045, 6.105825430707894), (-222.5835151549561, -159.40978347441043), (-144.00743762928124, -54.77746937598281), (-12.43321568968513, -110.11237220674687)]",1,radial,89.74,514.71,9.67,13.18,0.0855,3,,,,,0,0,0,0,,,,,0,32,32,70,,,,,,,,,,,,,,,space,0.43978710006922483,,,,,38,,,,,,,,,,,,,,,,,,,,,,,,,,,2260.0879068002105,None,,,,,,,,,15,19,Female,2021_Dec_15_1802,uniform_mix,2021.2.3,59.998908081405965,
c4_black_ref.xlsx,c4_black_t.xlsx,c4_black.xlsx,stims/black134.png,,134,1320,0.4,40,"[(-90.0, -50.0), (-70.0, -140.0), (120.0, 40.0), (200.0, -90.0), (-180.0, 60.0), (-160.0, -10.0), (100.0, 100.0), (100.0, -10.0), (-160.0, -110.0), (20.0, -140.0), (190.0, 130.0), (20.0, 110.0), (-170.0, 140.0), (140.0, -40.0), (190.0, 30.0), (50.0, -90.0), (100.0, -100.0), (-100.0, 50.0), (-20.0, -100.0), (-60.0, 110.0), (-103.05441582706598, -29.18875171115438), (-91.11378019015197, -134.04881323685203), (129.32758971292444, 18.71181774203788), (190.9535581773957, -125.80857347786883), (-176.75647932883, 99.89259625957786), (-148.53918511607992, 6.9161107345618404), (119.50367352476641, 98.15055006250242), (105.74831615659485, -26.945559896162138), (-183.33718758544063, -94.59602410822419), (6.454619813459459, -148.05667526988162), (167.18937449623883, 165.88800172559695), (2.0388574637097037, 116.56119895564014), (-196.10891681242254, 101.48761603739405), (139.3196841644646, -16.738743238164687), (174.279025992402, 59.45973562369582), (66.76574080679892, -80.93326196180523), (115.98817585842993, -94.71904968710615), (-107.75421600149869, 35.901576663919755), (-3.418798985960791, -106.90302269075472), (-87.5439764659555, 99.31283535848681)]","[(-90.0, -50.0), (-70.0, -140.0), (120.0, 40.0), (200.0, -90.0), (-180.0, 60.0), (-160.0, -10.0), (100.0, 100.0), (100.0, -10.0), (-160.0, -110.0), (20.0, -140.0), (190.0, 130.0), (20.0, 110.0), (-170.0, 140.0), (140.0, -40.0), (190.0, 30.0), (50.0, -90.0), (100.0, -100.0), (-100.0, 50.0), (-20.0, -100.0), (-60.0, 110.0)]","[(-103.05441582706598, -29.18875171115438), (-91.11378019015197, -134.04881323685203), (129.32758971292444, 18.71181774203788), (190.9535581773957, -125.80857347786883), (-176.75647932883, 99.89259625957786), (-148.53918511607992, 6.9161107345618404), (119.50367352476641, 98.15055006250242), (105.74831615659485, -26.945559896162138), (-183.33718758544063, -94.59602410822419), (6.454619813459459, -148.05667526988162), (167.18937449623883, 165.88800172559695), (2.0388574637097037, 116.56119895564014), (-196.10891681242254, 101.48761603739405), (139.3196841644646, -16.738743238164687), (174.279025992402, 59.45973562369582), (66.76574080679892, -80.93326196180523), (115.98817585842993, -94.71904968710615), (-107.75421600149869, 35.901576663919755), (-3.418798985960791, -106.90302269075472), (-87.5439764659555, 99.31283535848681)]",1,tangential,82.88,467.68,10.01,13.43,0.0855,2,,,,,0,0,0,0,,,,,0,33,33,133,,,,,,,,,,,,,,,space,0.4615158000960946,,,,,36,,,,,,,,,,,,,,,,,,,,,,,,,,,2262.7115210001357,None,,,,,,,,,15,19,Female,2021_Dec_15_1802,uniform_mix,2021.2.3,59.998908081405965,
c4_black_ref.xlsx,c4_black_t.xlsx,c4_black.xlsx,stims/black74.png,,74,4272,0.4,34,"[(-90.0, 120.0), (-110.0, -40.0), (200.0, -130.0), (-10.0, 100.0), (-200.0, 50.0), (140.0, 110.0), (50.0, 120.0), (-200.0, 140.0), (110.0, 50.0), (20.0, -110.0), (-100.0, -90.0), (170.0, 0.0), (-100.0, 20.0), (-40.0, -120.0), (-200.0, -80.0), (90.0, -100.0), (110.0, -20.0), (97.76353086109236, 75.97519474175536), (-51.103857912282706, -105.88927052101818), (-20.386181334990226, -115.73842531712705), (-3.1497680494804285, -118.39089196398619), (45.18152609200658, -102.60999637602528), (182.82074041423377, -22.33817102103052), (175.65441738953623, 22.904815751878687), (73.60552737102876, -101.5388934995949), (100.9350092394138, -79.48694988017759), (-121.65709244430886, -81.09102490460654), (-88.69556947706167, -97.88849891537117), (-95.1799647980057, 31.001299808779635), (-104.8108959680869, 9.947375257263218), (-218.73163231825194, -63.284437592771496), (-186.4880096108807, -111.57911731510538), (108.41668982979645, -45.58610898452575), (116.81416454281225, -2.5821718538738736)]","[(-90.0, 120.0), (-110.0, -40.0), (200.0, -130.0), (-10.0, 100.0), (-200.0, 50.0), (140.0, 110.0), (50.0, 120.0), (-200.0, 140.0), (110.0, 50.0), (20.0, -110.0), (-100.0, -90.0), (170.0, 0.0), (-100.0, 20.0), (-40.0, -120.0), (-200.0, -80.0), (90.0, -100.0), (110.0, -20.0)]","[(97.76353086109236, 75.97519474175536), (-51.103857912282706, -105.88927052101818), (-20.386181334990226, -115.73842531712705), (-3.1497680494804285, -118.39089196398619), (45.18152609200658, -102.60999637602528), (182.82074041423377, -22.33817102103052), (175.65441738953623, 22.904815751878687), (73.60552737102876, -101.5388934995949), (100.9350092394138, -79.48694988017759), (-121.65709244430886, -81.09102490460654), (-88.69556947706167, -97.88849891537117), (-95.1799647980057, 31.001299808779635), (-104.8108959680869, 9.947375257263218), (-218.73163231825194, -63.284437592771496), (-186.4880096108807, -111.57911731510538), (108.41668982979645, -45.58610898452575), (116.81416454281225, -2.5821718538738736)]",0,tangential,81.12,404.38,9.55,12.62,0.0841,2,,,,,0,0,0,0,,,,,0,34,34,73,,,,,,,,,,,,,,,space,0.4043343998491764,,,,,30,,,,,,,,,,,,,,,,,,,,,,,,,,,2265.3944304999895,None,,,,,,,,,15,19,Female,2021_Dec_15_1802,uniform_mix,2021.2.3,59.998908081405965,
c4_black_ref.xlsx,c4_black_t.xlsx,c4_black.xlsx,stims/black102.png,,102,2894,0.4,36,"[(110.0, -10.0), (190.0, 40.0), (40.0, 110.0), (10.0, -100.0), (-100.0, -50.0), (-20.0, 100.0), (110.0, 140.0), (60.0, -110.0), (-170.0, 10.0), (110.0, -70.0), (-200.0, -60.0), (130.0, 80.0), (-170.0, 100.0), (-70.0, 130.0), (190.0, -110.0), (-90.0, 70.0), (-80.0, -120.0), (-100.0, 20.0), (-179.35065576791703, 30.56998553087456), (-74.22469477699067, 76.91587756744323), (144.14481065086713, 63.386834413390375), (92.98646814766869, -76.66439948810834), (-156.56376476642845, 117.6054586048553), (85.51905964513824, 169.518175393015), (-93.59468074618262, 131.01217786795672), (-92.55030750632926, -66.28095308800977), (-189.60698407091633, -100.9969503668035), (81.57383049143228, -104.22783877340314), (-5.19887841154933, 95.68907257760573), (-37.51086110771324, 99.21036511879109), (163.0385167130167, -136.680333308925), (194.93912390016706, -84.18888925864863), (-92.25023723716072, 38.07705345010328), (-95.7064130147364, 2.8699523091580375), (-94.92731898921241, -103.61926017105014), (-63.68093828661165, -139.41454612076058)]","[(110.0, -10.0), (190.0, 40.0), (40.0, 110.0), (10.0, -100.0), (-100.0, -50.0), (-20.0, 100.0), (110.0, 140.0), (60.0, -110.0), (-170.0, 10.0), (110.0, -70.0), (-200.0, -60.0), (130.0, 80.0), (-170.0, 100.0), (-70.0, 130.0), (190.0, -110.0), (-90.0, 70.0), (-80.0, -120.0), (-100.0, 20.0)]","[(-179.35065576791703, 30.56998553087456), (-74.22469477699067, 76.91587756744323), (144.14481065086713, 63.386834413390375), (92.98646814766869, -76.66439948810834), (-156.56376476642845, 117.6054586048553), (85.51905964513824, 169.518175393015), (-93.59468074618262, 131.01217786795672), (-92.55030750632926, -66.28095308800977), (-189.60698407091633, -100.9969503668035), (81.57383049143228, -104.22783877340314), (-5.19887841154933, 95.68907257760573), (-37.51086110771324, 99.21036511879109), (163.0385167130167, -136.680333308925), (194.93912390016706, -84.18888925864863), (-92.25023723716072, 38.07705345010328), (-95.7064130147364, 2.8699523091580375), (-94.92731898921241, -103.61926017105014), (-63.68093828661165, -139.41454612076058)]",0.5,tangential,77.76,423.05,9.67,12.96,0.0851,2,,,,,0,0,0,0,,,,,0,35,35,101,,,,,,,,,,,,,,,space,0.4777269000187516,,,,,30,,,,,,,,,,,,,,,,,,,,,,,,,,,2268.434200000018,None,,,,,,,,,15,19,Female,2021_Dec_15_1802,uniform_mix,2021.2.3,59.998908081405965,
c4_black_ref.xlsx,c4_black_t.xlsx,c4_black.xlsx,stims/black72.png,,72,4001,0.4,44,"[(-40.0, -120.0), (-160.0, -20.0), (-110.0, 30.0), (-190.0, 140.0), (80.0, -140.0), (-190.0, -100.0), (-200.0, 50.0), (-110.0, 90.0), (80.0, 60.0), (-100.0, -30.0), (-80.0, -80.0), (100.0, -10.0), (-110.0, -140.0), (120.0, 30.0), (200.0, -110.0), (10.0, 100.0), (170.0, -10.0), (20.0, -100.0), (170.0, 100.0), (110.0, -80.0), (-40.0, 110.0), (70.0, 140.0), (-40.37125742738133, -99.68258580917698), (-137.0719723975476, -7.7538547280814), (-94.28494540338366, 31.538218226030253), (-164.78051679799432, 105.74607611430787), (78.4728522906978, -116.48514526208098), (-159.2907829529666, -94.69464175532381), (-161.07933943082338, 49.826269573081206), (-104.29455474566058, 70.87417515004294), (74.49730120588471, 50.25091786781727), (-87.5524182642658, -36.233147252102384), (-70.86756200016323, -72.53806508287849), (112.75580399657181, -16.65923437934875), (-113.4219066238671, -166.50577502518064), (136.80283256586597, 27.48920115917), (229.24623033343966, -124.88084012967222), (16.32375308357586, 113.42296817210098), (199.6800830629535, -17.396936422740975), (22.18171021383339, -124.52000537403543), (200.7279314710612, 106.48186618504201), (130.53661985888647, -86.15632055765622), (-48.30979809705749, 123.67217242552516), (89.17764684700545, 171.7535411068621)]","[(-40.0, -120.0), (-160.0, -20.0), (-110.0, 30.0), (-190.0, 140.0), (80.0, -140.0), (-190.0, -100.0), (-200.0, 50.0), (-110.0, 90.0), (80.0, 60.0), (-100.0, -30.0), (-80.0, -80.0), (100.0, -10.0), (-110.0, -140.0), (120.0, 30.0), (200.0, -110.0), (10.0, 100.0), (170.0, -10.0), (20.0, -100.0), (170.0, 100.0), (110.0, -80.0), (-40.0, 110.0), (70.0, 140.0)]","[(-40.37125742738133, -99.68258580917698), (-137.0719723975476, -7.7538547280814), (-94.28494540338366, 31.538218226030253), (-164.78051679799432, 105.74607611430787), (78.4728522906978, -116.48514526208098), (-159.2907829529666, -94.69464175532381), (-161.07933943082338, 49.826269573081206), (-104.29455474566058, 70.87417515004294), (74.49730120588471, 50.25091786781727), (-87.5524182642658, -36.233147252102384), (-70.86756200016323, -72.53806508287849), (112.75580399657181, -16.65923437934875), (-113.4219066238671, -166.50577502518064), (136.80283256586597, 27.48920115917), (229.24623033343966, -124.88084012967222), (16.32375308357586, 113.42296817210098), (199.6800830629535, -17.396936422740975), (22.18171021383339, -124.52000537403543), (200.7279314710612, 106.48186618504201), (130.53661985888647, -86.15632055765622), (-48.30979809705749, 123.67217242552516), (89.17764684700545, 171.7535411068621)]",1,radial,87.1,514.4,9.82,13.27,0.0855,4,,,,,0,0,0,0,,,,,0,36,36,71,,,,,,,,,,,,,,,space,0.4987146998755634,,,,,40,,,,,,,,,,,,,,,,,,,,,,,,,,,2271.086455500219,None,,,,,,,,,15,19,Female,2021_Dec_15_1802,uniform_mix,2021.2.3,59.998908081405965,
c4_black_ref.xlsx,c4_black_t.xlsx,c4_black.xlsx,stims/black91.png,,91,3388,0.4,42,"[(0.0, 100.0), (200.0, -140.0), (-100.0, 0.0), (-80.0, -60.0), (130.0, -70.0), (-70.0, 110.0), (180.0, 60.0), (-110.0, 40.0), (-150.0, -60.0), (90.0, 100.0), (-170.0, 110.0), (-190.0, 10.0), (170.0, 140.0), (110.0, 0.0), (80.0, -90.0), (10.0, -110.0), (-160.0, -140.0), (40.0, 140.0), (90.0, 50.0), (200.0, -40.0), (-80.0, -120.0), (137.83254818086237, 163.76220263184862), (100.25423579544645, -10.92976244761013), (114.86876236928583, 23.377058152964793), (-4.0382971068210765, -115.04500965939268), (29.770167525799437, -101.77451110758423), (199.67248114920343, -82.95181317014371), (217.54676740492152, -17.294825067814003), (-140.009579469698, 133.5048739007773), (-172.22307784024008, 83.87749030658762), (93.20398905215316, 35.2400484629341), (78.21859251558688, 71.45914106142673), (-89.14046734624148, -105.56637238825726), (-61.904404829381264, -139.36806437310997), (71.10601674276631, 135.33314340202207), (16.182474609511786, 150.7068564882121), (-189.86430965878645, -126.84170130190878), (-155.75874682978986, -165.57365353166125), (-175.598467241447, 29.89035748147751), (-186.67564257647436, -29.0796603055137), (65.63562472337247, -109.74842937150137), (89.38710694667287, -77.3314522762345)]","[(0.0, 100.0), (200.0, -140.0), (-100.0, 0.0), (-80.0, -60.0), (130.0, -70.0), (-70.0, 110.0), (180.0, 60.0), (-110.0, 40.0), (-150.0, -60.0), (90.0, 100.0), (-170.0, 110.0), (-190.0, 10.0), (170.0, 140.0), (110.0, 0.0), (80.0, -90.0), (10.0, -110.0), (-160.0, -140.0), (40.0, 140.0), (90.0, 50.0), (200.0, -40.0), (-80.0, -120.0)]","[(137.83254818086237, 163.76220263184862), (100.25423579544645, -10.92976244761013), (114.86876236928583, 23.377058152964793), (-4.0382971068210765, -115.04500965939268), (29.770167525799437, -101.77451110758423), (199.67248114920343, -82.95181317014371), (217.54676740492152, -17.294825067814003), (-140.009579469698, 133.5048739007773), (-172.22307784024008, 83.87749030658762), (93.20398905215316, 35.2400484629341), (78.21859251558688, 71.45914106142673), (-89.14046734624148, -105.56637238825726), (-61.904404829381264, -139.36806437310997), (71.10601674276631, 135.33314340202207), (16.182474609511786, 150.7068564882121), (-189.86430965878645, -126.84170130190878), (-155.75874682978986, -165.57365353166125), (-175.598467241447, 29.89035748147751), (-186.67564257647436, -29.0796603055137), (65.63562472337247, -109.74842937150137), (89.38710694667287, -77.3314522762345)]",0,tangential,84.62,491.3,10.18,13.72,0.0855,3,,,,,0,0,0,0,,,,,0,37,37,90,,,,,,,,,,,,,,,space,0.4089170000515878,,,,,42,,,,,,,,,,,,,,,,,,,,,,,,,,,2273.5909854001366,None,,,,,,,,,15,19,Female,2021_Dec_15_1802,uniform_mix,2021.2.3,59.998908081405965,
