reference,test_blockOrder,blockOrder,imageFile,num,index,n,winsize,numerosity,allposis,centralposis,extraposis,perceptpairs,protectzonetype,convexhull,occupancyarea,averageeccentricity,averagespacing,density,display_i,p_trials.thisRepN,p_trials.thisTrialN,p_trials.thisN,p_trials.thisIndex,blocks.thisRepN,blocks.thisTrialN,blocks.thisN,blocks.thisIndex,trials_2.thisRepN,trials_2.thisTrialN,trials_2.thisN,trials_2.thisIndex,trials.thisRepN,trials.thisTrialN,trials.thisN,trials.thisIndex,key_resp.keys,key_resp.rt,key_resp_14.keys,key_resp_14.rt,key_resp_15.keys,key_resp_15.rt,key_resp_16.keys,key_resp_16.rt,key_resp_17.keys,key_resp_17.rt,key_resp_18.keys,key_resp_18.rt,key_resp_19.keys,key_resp_19.rt,key_resp_26.keys,key_resp_26.rt,p_img.started,p_img.stopped,text_14.started,text_14.stopped,responseN,key_resp_4.keys,key_resp_4.rt,text_20.started,text_20.stopped,key_resp_20.keys,key_resp_20.rt,key_resp_20.started,key_resp_20.stopped,key_resp_22.keys,key_resp_22.rt,key_resp_5.keys,key_resp_5.rt,image_2.started,image_2.stopped,blank.started,blank.stopped,text_21.started,text_21.stopped,key_resp_7.keys,key_resp_7.rt,key_resp_7.started,key_resp_7.stopped,key_resp_8.keys,key_resp_8.rt,key_resp_23.keys,key_resp_23.rt,image.started,image.stopped,text_31.started,text_31.stopped,text_32.started,text_32.stopped,key_resp_2.keys,key_resp_2.rt,thanksm.started,thanksm.stopped,participant,age,sex,date,expName,psychopyVersion,frameRate,
,,,,,,,,,,,,,,,,,,,,,,,,,,,,,,,,,,,,space,44.43470100034028,,,,,,,,,,,,,,,,,,,,,,,,,,,,,,,,,,,,,,,,,,,,,,,,,,,,,,,,18,21,Female,2021_Dec_16_1202,uniform_mix,2021.2.3,59.674986126120054,
,,,,,,,,,,,,,,,,,,,,,,,,,,,,,,,,,,,,,,space,34.15533119998872,,,,,,,,,,,,,,,,,,,,,,,,,,,,,,,,,,,,,,,,,,,,,,,,,,,,,,18,21,Female,2021_Dec_16_1202,uniform_mix,2021.2.3,59.674986126120054,
,,,,,,,,,,,,,,,,,,,,,,,,,,,,,,,,,,,,,,,,space,1.5754267000593245,,,,,,,,,,,,,,,,,,,,,,,,,,,,,,,,,,,,,,,,,,,,,,,,,,,,18,21,Female,2021_Dec_16_1202,uniform_mix,2021.2.3,59.674986126120054,
,,,,,,,,,,,,,,,,,,,,,,,,,,,,,,,,,,,,,,,,,,space,13.021578599698842,,,,,,,,,,,,,,,,,,,,,,,,,,,,,,,,,,,,,,,,,,,,,,,,,,18,21,Female,2021_Dec_16_1202,uniform_mix,2021.2.3,59.674986126120054,
,,,,,,,,,,,,,,,,,,,,,,,,,,,,,,,,,,,,,,,,,,,,space,10.097739099990577,,,,,,,,,,,,,,,,,,,,,,,,,,,,,,,,,,,,,,,,,,,,,,,,18,21,Female,2021_Dec_16_1202,uniform_mix,2021.2.3,59.674986126120054,
,,,,,,,,,,,,,,,,,,,,,,,,,,,,,,,,,,,,,,,,,,,,,,space,27.53155309986323,,,,,,,,,,,,,,,,,,,,,,,,,,,,,,,,,,,,,,,,,,,,,,18,21,Female,2021_Dec_16_1202,uniform_mix,2021.2.3,59.674986126120054,
,,,,,,,,,,,,,,,,,,,,,,,,,,,,,,,,,,,,,,,,,,,,,,,,space,0.9262214000336826,space,1.210407200269401,1412.4288380001672,1412.6059754001908,1412.6059754001908,None,,space,41.37418989976868,,,,,,,,,,,,,,,,,,,,,,,,,,,,,,,,,,,18,21,Female,2021_Dec_16_1202,uniform_mix,2021.2.3,59.674986126120054,
,,,,,,,,,,,,,,,,,,,,,,,,,,,,,,,,,,,,,,,,,,,,,,,,,,,,,,,,,,,1454.9476691000164,None,space,3.6449691997841,1454.9476691000164,None,,,,,,,,,,,,,,,,,,,,,,,,,,,,,18,21,Female,2021_Dec_16_1202,uniform_mix,2021.2.3,59.674986126120054,
c6_black_ref.xlsx,c6_black_t.xlsx,c6_black.xlsx,stims/blackref9.png,44,,,,,,,,,,,,,,,,,,,,0,0,0,0,0,0,0,3,,,,,,,,,,,,,,,,,,,space,2.821240299846977,,,,,,,,,,,,,,n,7.5904739000834525,space,4.806457499973476,1475.0782351000234,1475.248021800071,1475.248021800071,None,1475.5054593002424,None,space,4.582506999839097,1475.5054593002424,None,space,16.483003300148994,,,,,,,,,,,,,18,21,Female,2021_Dec_16_1202,uniform_mix,2021.2.3,59.674986126120054,
c6_black_ref.xlsx,c6_black_t.xlsx,c6_black.xlsx,stims/blackref8.png,66,,,,,,,,,,,,,,,,,,,,0,0,0,0,0,1,1,2,,,,,,,,,,,,,,,,,,,space,0.8719659000635147,,,,,,,,,,,,,,n,1.7919525001198053,space,1.593498199712485,1502.0378227001056,1502.2136761001311,1502.2136761001311,None,1502.4627422001213,None,space,1.560346500016749,1502.4627422001213,None,space,3.146782400086522,,,,,,,,,,,,,18,21,Female,2021_Dec_16_1202,uniform_mix,2021.2.3,59.674986126120054,
c6_black_ref.xlsx,c6_black_t.xlsx,c6_black.xlsx,stims/blackref7.png,52,,,,,,,,,,,,,,,,,,,,0,0,0,0,0,2,2,1,,,,,,,,,,,,,,,,,,,space,1.0401781997643411,,,,,,,,,,,,,,n,0.833585100248456,space,0.7547495998442173,1510.9850809001364,1511.1657222998329,1511.1657222998329,None,1511.4147561998107,None,space,1.5847049001604319,1511.4147561998107,None,space,3.9639515997841954,,,,,,,,,,,,,18,21,Female,2021_Dec_16_1202,uniform_mix,2021.2.3,59.674986126120054,
c6_black_ref.xlsx,c6_black_t.xlsx,c6_black.xlsx,stims/blackref10.png,73,,,,,,,,,,,,,,,,,,,,0,0,0,0,0,3,3,4,,,,,,,,,,,,,,,,,,,space,1.169880600180477,,,,,,,,,,,,,,n,0.29488519998267293,space,0.9426592001691461,1520.5494546000846,1520.719546200242,1520.719546200242,None,1520.9757560002618,None,space,1.2703337999992073,1520.9757560002618,None,space,2.6727335997857153,,,,,,,,,,,,,18,21,Female,2021_Dec_16_1202,uniform_mix,2021.2.3,59.674986126120054,
c6_black_ref.xlsx,c6_black_t.xlsx,c6_black.xlsx,stims/blackref6.png,59,,,,,,,,,,,,,,,,,,,,0,0,0,0,0,4,4,0,,,,,,,,,,,,,,,,,,,space,1.4552011000923812,,,,,,,,,,,,,,n,0.3247118997387588,space,1.548168999608606,1529.5013394998387,1529.6787308999337,1529.6787308999337,None,1529.9260003999807,None,space,1.2343477001413703,1529.9260003999807,None,space,1.6323756002821028,,,,,,,,,,,,,18,21,Female,2021_Dec_16_1202,uniform_mix,2021.2.3,59.674986126120054,
c6_black_ref.xlsx,c6_black_t.xlsx,c6_black.xlsx,stims/black279.png,,279,631,0.6,60,"[(-40.0, -160.0), (-60.0, -90.0), (-260.0, -20.0), (80.0, 60.0), (-140.0, -200.0), (150.0, 100.0), (20.0, -100.0), (-120.0, 40.0), (-280.0, -160.0), (-270.0, 210.0), (100.0, 220.0), (-150.0, -40.0), (170.0, -130.0), (-100.0, -10.0), (250.0, 180.0), (130.0, 30.0), (-70.0, 80.0), (300.0, -220.0), (190.0, 0.0), (100.0, -100.0), (-180.0, 100.0), (-120.0, 190.0), (100.0, -20.0), (60.0, -200.0), (-50.0, 150.0), (280.0, -60.0), (60.0, 130.0), (-10.0, 220.0), (10.0, 110.0), (-120.0, -110.0), (-68.72533104018396, -155.63735296619475), (-77.7459887333383, -83.74575996472343), (-259.39832381660773, 30.24319409941171), (94.81006619388921, 41.39232953834556), (-173.616357512447, -191.7493170501666), (171.92642882460288, 85.28039777902694), (5.554757046137098, -95.23969941006004), (-111.18850414049598, 59.76466025990945), (-316.7892188873926, -135.94451327076308), (-218.48217862674124, 256.1510678226072), (151.5096490872345, 196.06623192240573), (-155.2481687782023, -22.928484287788393), (155.90284024517703, -159.86506020536052), (-107.3049995615563, 0.6043680851443725), (269.17793320577067, 151.55290016128828), (125.05334008391544, 53.00453254363808), (-76.77036353419372, 64.8149803687325), (348.98733279792816, -189.04418136389137), (202.5279071602408, 22.77579709685375), (123.85076368227708, -85.48082035056503), (-203.31486456723354, 58.30285226436382), (-130.97198054875676, 164.91108651871764), (104.10491576816811, -4.077890272944202), (105.65119632179187, -197.36907795578838), (-73.94925731492721, 133.70240362287578), (309.61362477861945, -31.327006931951757), (35.26122079344425, 135.71505871557022), (-37.162775187397756, 236.89452972038507), (-6.9652890061395, 117.9876257729569), (-97.83175131561426, -112.65142252596249)]","[(-40.0, -160.0), (-60.0, -90.0), (-260.0, -20.0), (80.0, 60.0), (-140.0, -200.0), (150.0, 100.0), (20.0, -100.0), (-120.0, 40.0), (-280.0, -160.0), (-270.0, 210.0), (100.0, 220.0), (-150.0, -40.0), (170.0, -130.0), (-100.0, -10.0), (250.0, 180.0), (130.0, 30.0), (-70.0, 80.0), (300.0, -220.0), (190.0, 0.0), (100.0, -100.0), (-180.0, 100.0), (-120.0, 190.0), (100.0, -20.0), (60.0, -200.0), (-50.0, 150.0), (280.0, -60.0), (60.0, 130.0), (-10.0, 220.0), (10.0, 110.0), (-120.0, -110.0)]","[(-68.72533104018396, -155.63735296619475), (-77.7459887333383, -83.74575996472343), (-259.39832381660773, 30.24319409941171), (94.81006619388921, 41.39232953834556), (-173.616357512447, -191.7493170501666), (171.92642882460288, 85.28039777902694), (5.554757046137098, -95.23969941006004), (-111.18850414049598, 59.76466025990945), (-316.7892188873926, -135.94451327076308), (-218.48217862674124, 256.1510678226072), (151.5096490872345, 196.06623192240573), (-155.2481687782023, -22.928484287788393), (155.90284024517703, -159.86506020536052), (-107.3049995615563, 0.6043680851443725), (269.17793320577067, 151.55290016128828), (125.05334008391544, 53.00453254363808), (-76.77036353419372, 64.8149803687325), (348.98733279792816, -189.04418136389137), (202.5279071602408, 22.77579709685375), (123.85076368227708, -85.48082035056503), (-203.31486456723354, 58.30285226436382), (-130.97198054875676, 164.91108651871764), (104.10491576816811, -4.077890272944202), (105.65119632179187, -197.36907795578838), (-73.94925731492721, 133.70240362287578), (309.61362477861945, -31.327006931951757), (35.26122079344425, 135.71505871557022), (-37.162775187397756, 236.89452972038507), (-6.9652890061395, 117.9876257729569), (-97.83175131561426, -112.65142252596249)]",1,tangential,128.68,1090.53,12.69,17.56,0.055,3,,,,,0,0,0,0,,,,,0,0,0,134,,,,,,,,,,,,,,,space,0.9782456997781992,,,,,65,,,,,,,,,,,,,,,,,,,,,,,,,space,23.10874560009688,1557.4428321002051,None,,,,,,,,,18,21,Female,2021_Dec_16_1202,uniform_mix,2021.2.3,59.674986126120054,
c6_black_ref.xlsx,c6_black_t.xlsx,c6_black.xlsx,stims/black169.png,,169,647,0.6,54,"[(20.0, -130.0), (-210.0, 170.0), (-130.0, -80.0), (-270.0, -190.0), (-150.0, -220.0), (110.0, 180.0), (-230.0, 60.0), (280.0, 160.0), (100.0, 0.0), (-50.0, -110.0), (-100.0, 100.0), (150.0, 50.0), (-110.0, 50.0), (-50.0, 110.0), (110.0, -200.0), (-30.0, -170.0), (220.0, -40.0), (-260.0, -50.0), (300.0, -220.0), (150.0, -100.0), (80.0, -70.0), (60.0, 80.0), (0.0, 180.0), (-100.0, 180.0), (20.0, 120.0), (-170.0, -10.0), (-100.0, 0.0), (88.32264226937951, 4.903229738916179), (-48.68561109506355, -87.1968479537135), (252.62737438399446, 122.64942618038191), (-80.19936126716321, 149.84364846444433), (5.881662099120554, 151.33697247779432), (-221.95972361570938, -52.4419602553658), (-150.26004293649243, 3.8120411350363916), (-65.00126830930085, 127.29095983279079), (-28.636875973206045, -198.93113655837783), (175.23537049540602, 67.4164143558981), (-117.8213545779365, -3.1727167942021133), (-253.51939400064504, 83.45289800305791), (182.675334203942, -121.02346553596595), (100.99271875451986, -82.28738239311339), (22.105012340757995, 132.8105754027755), (-78.74109583414216, 79.20905315056443), (-125.41070178565431, 118.31560794928316), (179.8392272184144, -44.23656095551196), (246.89318115193126, -51.83817460627571), (91.7024832677659, -174.89262197037488), (113.24002790585394, -225.24183192112895), (244.02732528159714, -158.11025410248897), (326.31545100993225, -274.796455673889), (52.16261075700919, 64.19990669108971), (74.11149391812776, 97.17822994721851), (-92.4956117929552, 52.60101199754333), (-120.78040105588084, 58.87858971767633)]","[(20.0, -130.0), (-210.0, 170.0), (-130.0, -80.0), (-270.0, -190.0), (-150.0, -220.0), (110.0, 180.0), (-230.0, 60.0), (280.0, 160.0), (100.0, 0.0), (-50.0, -110.0), (-100.0, 100.0), (150.0, 50.0), (-110.0, 50.0), (-50.0, 110.0), (110.0, -200.0), (-30.0, -170.0), (220.0, -40.0), (-260.0, -50.0), (300.0, -220.0), (150.0, -100.0), (80.0, -70.0), (60.0, 80.0), (0.0, 180.0), (-100.0, 180.0), (20.0, 120.0), (-170.0, -10.0), (-100.0, 0.0)]","[(88.32264226937951, 4.903229738916179), (-48.68561109506355, -87.1968479537135), (252.62737438399446, 122.64942618038191), (-80.19936126716321, 149.84364846444433), (5.881662099120554, 151.33697247779432), (-221.95972361570938, -52.4419602553658), (-150.26004293649243, 3.8120411350363916), (-65.00126830930085, 127.29095983279079), (-28.636875973206045, -198.93113655837783), (175.23537049540602, 67.4164143558981), (-117.8213545779365, -3.1727167942021133), (-253.51939400064504, 83.45289800305791), (182.675334203942, -121.02346553596595), (100.99271875451986, -82.28738239311339), (22.105012340757995, 132.8105754027755), (-78.74109583414216, 79.20905315056443), (-125.41070178565431, 118.31560794928316), (179.8392272184144, -44.23656095551196), (246.89318115193126, -51.83817460627571), (91.7024832677659, -174.89262197037488), (113.24002790585394, -225.24183192112895), (244.02732528159714, -158.11025410248897), (326.31545100993225, -274.796455673889), (52.16261075700919, 64.19990669108971), (74.11149391812776, 97.17822994721851), (-92.4956117929552, 52.60101199754333), (-120.78040105588084, 58.87858971767633)]",0.5,radial,124.53,986.68,12.14,16.73,0.0547,1,,,,,0,0,0,0,,,,,0,1,1,24,,,,,,,,,,,,,,,space,1.2895235000178218,,,,,60,,,,,,,,,,,,,,,,,,,,,,,,,,,1562.1369517999701,None,,,,,,,,,18,21,Female,2021_Dec_16_1202,uniform_mix,2021.2.3,59.674986126120054,
c6_black_ref.xlsx,c6_black_t.xlsx,c6_black.xlsx,stims/black228.png,,228,2251,0.6,58,"[(-90.0, -100.0), (100.0, 220.0), (-30.0, 110.0), (230.0, -30.0), (110.0, -40.0), (70.0, -100.0), (-130.0, 200.0), (-90.0, -50.0), (-290.0, 140.0), (100.0, 0.0), (230.0, 110.0), (80.0, -180.0), (-180.0, 70.0), (0.0, 200.0), (0.0, -120.0), (30.0, 120.0), (-100.0, 120.0), (-220.0, -10.0), (-130.0, -20.0), (60.0, 80.0), (300.0, 220.0), (-100.0, 40.0), (-80.0, -210.0), (120.0, 130.0), (140.0, 40.0), (160.0, -120.0), (270.0, -160.0), (-300.0, -90.0), (-200.0, -150.0), (-205.5528804324576, -39.943168039884824), (130.13054260545744, -147.90085621393789), (187.31435177378927, -98.36986188205162), (123.91683218712075, 106.18907020278535), (100.94384252219491, 136.83051964371413), (-17.646538915956953, -120.39592186600578), (27.73877951898453, -117.89802380398258), (-131.41095590515232, 7.142391846669597), (-125.98930627734617, -48.17963222955129), (300.36945431253343, 166.59737478036718), (240.9175270235836, 278.5545433539312), (261.8682629467796, -191.62213880447644), (282.9384401519042, -105.08302730223346), (-76.74214817528595, 134.8956850820902), (-108.37932642731684, 98.89455249056459), (-108.26100548022788, -212.019211487575), (-34.07438846390744, -234.61568758170307), (74.8195418507962, 65.37946129896355), (46.84507616558368, 87.31373776800557), (135.5948357122416, 23.937510358433443), (128.4625167488369, 57.54514065593568), (-224.15376661091676, -110.58296384687537), (-163.65683860107748, -166.09129822380146), (-92.75656844938719, 58.21037521081388), (-113.14984379756388, 30.191499745316563), (-305.49923711342257, -49.0224001888551), (-267.3078478272252, -142.93828915919028), (59.55501999990899, 112.66679684707161), (19.29061404607222, 130.92980017450603)]","[(-90.0, -100.0), (100.0, 220.0), (-30.0, 110.0), (230.0, -30.0), (110.0, -40.0), (70.0, -100.0), (-130.0, 200.0), (-90.0, -50.0), (-290.0, 140.0), (100.0, 0.0), (230.0, 110.0), (80.0, -180.0), (-180.0, 70.0), (0.0, 200.0), (0.0, -120.0), (30.0, 120.0), (-100.0, 120.0), (-220.0, -10.0), (-130.0, -20.0), (60.0, 80.0), (300.0, 220.0), (-100.0, 40.0), (-80.0, -210.0), (120.0, 130.0), (140.0, 40.0), (160.0, -120.0), (270.0, -160.0), (-300.0, -90.0), (-200.0, -150.0)]","[(-205.5528804324576, -39.943168039884824), (130.13054260545744, -147.90085621393789), (187.31435177378927, -98.36986188205162), (123.91683218712075, 106.18907020278535), (100.94384252219491, 136.83051964371413), (-17.646538915956953, -120.39592186600578), (27.73877951898453, -117.89802380398258), (-131.41095590515232, 7.142391846669597), (-125.98930627734617, -48.17963222955129), (300.36945431253343, 166.59737478036718), (240.9175270235836, 278.5545433539312), (261.8682629467796, -191.62213880447644), (282.9384401519042, -105.08302730223346), (-76.74214817528595, 134.8956850820902), (-108.37932642731684, 98.89455249056459), (-108.26100548022788, -212.019211487575), (-34.07438846390744, -234.61568758170307), (74.8195418507962, 65.37946129896355), (46.84507616558368, 87.31373776800557), (135.5948357122416, 23.937510358433443), (128.4625167488369, 57.54514065593568), (-224.15376661091676, -110.58296384687537), (-163.65683860107748, -166.09129822380146), (-92.75656844938719, 58.21037521081388), (-113.14984379756388, 30.191499745316563), (-305.49923711342257, -49.0224001888551), (-267.3078478272252, -142.93828915919028), (59.55501999990899, 112.66679684707161), (19.29061404607222, 130.92980017450603)]",0,tangential,123.77,1054.15,12.59,17.37,0.055,4,,,,,0,0,0,0,,,,,0,2,2,83,,,,,,,,,,,,,,,space,1.0623431000858545,,,,,70,,,,,,,,,,,,,,,,,,,,,,,,,,,1566.6444175001234,None,,,,,,,,,18,21,Female,2021_Dec_16_1202,uniform_mix,2021.2.3,59.674986126120054,
c6_black_ref.xlsx,c6_black_t.xlsx,c6_black.xlsx,stims/black240.png,,240,4744,0.6,64,"[(-80.0, -150.0), (40.0, 100.0), (60.0, -100.0), (170.0, -100.0), (-100.0, 10.0), (-250.0, -210.0), (-30.0, -210.0), (100.0, 10.0), (-10.0, 100.0), (-100.0, -40.0), (120.0, 120.0), (-170.0, 20.0), (120.0, -220.0), (-90.0, 130.0), (-60.0, -90.0), (40.0, -160.0), (-270.0, 130.0), (-100.0, 70.0), (170.0, 10.0), (-170.0, 170.0), (300.0, -210.0), (90.0, 60.0), (110.0, 210.0), (0.0, -110.0), (290.0, 200.0), (20.0, 160.0), (300.0, -80.0), (120.0, -50.0), (-230.0, -80.0), (-70.0, 210.0), (210.0, 90.0), (-150.0, -120.0), (-142.5456281742355, 204.24707780462478), (-189.53537440380865, 128.52386459566338), (239.93509633449608, 58.358620019007844), (182.33435085045585, 104.44979209235461), (-177.39911087592264, -98.25258557790255), (-122.38272787451614, -142.1412539404071), (170.30184418833676, -8.68711087754565), (166.8620089848227, 42.494000694497146), (259.6579016478733, -277.112299544822), (338.5369547529496, -182.2558784749951), (-83.07216431799725, 79.29077012345456), (-116.42264995557488, 48.24898173702421), (266.7176317432717, -117.96592659553698), (325.9256178471816, -31.2453941525269), (311.16769675461035, 137.08893201742586), (276.5586676864993, 233.35617360808095), (-23.800246833551995, -113.4630930785465), (13.213586690134036, -116.26806839354974), (123.09300905235179, -65.44622917142303), (129.06473595707968, -33.61645065379324), (-50.252940038859464, 234.67559128908982), (-87.8851301649344, 189.8607583801071), (-241.4584060708807, 149.66641305696368), (-287.2802028416917, 67.24434448077093), (55.10007915602323, 152.78380025757238), (-1.1154963219575222, 174.08220676042805), (-228.22653239697172, -45.07664856380495), (-203.8987535462971, -129.83990129175777), (143.14524164910375, 179.93074118867779), (99.15390334983437, 239.5251018031775), (100.18562160093512, 37.310644024256334), (78.40614666666536, 78.65217952856646)]","[(-80.0, -150.0), (40.0, 100.0), (60.0, -100.0), (170.0, -100.0), (-100.0, 10.0), (-250.0, -210.0), (-30.0, -210.0), (100.0, 10.0), (-10.0, 100.0), (-100.0, -40.0), (120.0, 120.0), (-170.0, 20.0), (120.0, -220.0), (-90.0, 130.0), (-60.0, -90.0), (40.0, -160.0), (-270.0, 130.0), (-100.0, 70.0), (170.0, 10.0), (-170.0, 170.0), (300.0, -210.0), (90.0, 60.0), (110.0, 210.0), (0.0, -110.0), (290.0, 200.0), (20.0, 160.0), (300.0, -80.0), (120.0, -50.0), (-230.0, -80.0), (-70.0, 210.0), (210.0, 90.0), (-150.0, -120.0)]","[(-142.5456281742355, 204.24707780462478), (-189.53537440380865, 128.52386459566338), (239.93509633449608, 58.358620019007844), (182.33435085045585, 104.44979209235461), (-177.39911087592264, -98.25258557790255), (-122.38272787451614, -142.1412539404071), (170.30184418833676, -8.68711087754565), (166.8620089848227, 42.494000694497146), (259.6579016478733, -277.112299544822), (338.5369547529496, -182.2558784749951), (-83.07216431799725, 79.29077012345456), (-116.42264995557488, 48.24898173702421), (266.7176317432717, -117.96592659553698), (325.9256178471816, -31.2453941525269), (311.16769675461035, 137.08893201742586), (276.5586676864993, 233.35617360808095), (-23.800246833551995, -113.4630930785465), (13.213586690134036, -116.26806839354974), (123.09300905235179, -65.44622917142303), (129.06473595707968, -33.61645065379324), (-50.252940038859464, 234.67559128908982), (-87.8851301649344, 189.8607583801071), (-241.4584060708807, 149.66641305696368), (-287.2802028416917, 67.24434448077093), (55.10007915602323, 152.78380025757238), (-1.1154963219575222, 174.08220676042805), (-228.22653239697172, -45.07664856380495), (-203.8987535462971, -129.83990129175777), (143.14524164910375, 179.93074118867779), (99.15390334983437, 239.5251018031775), (100.18562160093512, 37.310644024256334), (78.40614666666536, 78.65217952856646)]",0,tangential,129.38,1163.48,13.4,18.31,0.055,4,,,,,0,0,0,0,,,,,0,3,3,95,,,,,,,,,,,,,,,space,0.6458292999304831,,,,,75,,,,,,,,,,,,,,,,,,,,,,,,,,,1570.2124751000665,None,,,,,,,,,18,21,Female,2021_Dec_16_1202,uniform_mix,2021.2.3,59.674986126120054,
c6_black_ref.xlsx,c6_black_t.xlsx,c6_black.xlsx,stims/black211.png,,211,884,0.6,62,"[(120.0, 210.0), (-30.0, 160.0), (-100.0, -20.0), (-150.0, 220.0), (250.0, 220.0), (-270.0, -210.0), (-120.0, 30.0), (10.0, -110.0), (-60.0, -80.0), (-300.0, 20.0), (120.0, -30.0), (80.0, -140.0), (140.0, 40.0), (160.0, -130.0), (300.0, 70.0), (80.0, -220.0), (260.0, -30.0), (190.0, 120.0), (-260.0, 180.0), (20.0, 120.0), (280.0, -170.0), (-110.0, 130.0), (-160.0, -70.0), (-60.0, 90.0), (-70.0, -190.0), (70.0, -80.0), (-160.0, -160.0), (-180.0, 90.0), (60.0, 80.0), (110.0, 110.0), (100.0, 10.0), (86.91185791030183, 163.8678009545904), (-24.76421155182986, 142.91248490001513), (-83.14301546994508, -23.68898507253827), (-130.45767988529528, 195.01029312193748), (215.9007389399572, 206.36253325037873), (-240.09715031207008, -159.88737555342107), (-90.8880533566628, 27.066041039094056), (8.654005098268335, -94.13459748682783), (-46.53613644218187, -63.19516065484273), (-241.8083918172789, 14.757053317733305), (90.46514357340536, -23.311130902813744), (70.75079543142691, -110.45515449788601), (107.07256006626875, 29.073842153178568), (121.33616194502268, -107.1616320504321), (251.5219976539944, 44.96635894346123), (92.96670402929425, -241.99309216445087), (319.6770943984028, -31.91128913096994), (209.37784729630263, 135.74363146842305), (-293.9676937877545, 200.0164771789729), (25.32690092540721, 136.07684817039342), (329.21494983513674, -195.1748612398634), (-119.373847084406, 154.47755394809568), (-186.18854500792446, -66.36183192911014), (-63.202713439044935, 104.03021988735946), (-77.8514494424033, -234.33454431711834), (82.56763394528028, -96.97870688785704), (-186.7734190811653, -195.4509730637128), (-218.30996659486217, 96.1465857079691), (75.37273816090604, 92.4244439114846), (133.82667905727823, 122.96561466590724), (110.44451701867338, 14.71942055287058)]","[(120.0, 210.0), (-30.0, 160.0), (-100.0, -20.0), (-150.0, 220.0), (250.0, 220.0), (-270.0, -210.0), (-120.0, 30.0), (10.0, -110.0), (-60.0, -80.0), (-300.0, 20.0), (120.0, -30.0), (80.0, -140.0), (140.0, 40.0), (160.0, -130.0), (300.0, 70.0), (80.0, -220.0), (260.0, -30.0), (190.0, 120.0), (-260.0, 180.0), (20.0, 120.0), (280.0, -170.0), (-110.0, 130.0), (-160.0, -70.0), (-60.0, 90.0), (-70.0, -190.0), (70.0, -80.0), (-160.0, -160.0), (-180.0, 90.0), (60.0, 80.0), (110.0, 110.0), (100.0, 10.0)]","[(86.91185791030183, 163.8678009545904), (-24.76421155182986, 142.91248490001513), (-83.14301546994508, -23.68898507253827), (-130.45767988529528, 195.01029312193748), (215.9007389399572, 206.36253325037873), (-240.09715031207008, -159.88737555342107), (-90.8880533566628, 27.066041039094056), (8.654005098268335, -94.13459748682783), (-46.53613644218187, -63.19516065484273), (-241.8083918172789, 14.757053317733305), (90.46514357340536, -23.311130902813744), (70.75079543142691, -110.45515449788601), (107.07256006626875, 29.073842153178568), (121.33616194502268, -107.1616320504321), (251.5219976539944, 44.96635894346123), (92.96670402929425, -241.99309216445087), (319.6770943984028, -31.91128913096994), (209.37784729630263, 135.74363146842305), (-293.9676937877545, 200.0164771789729), (25.32690092540721, 136.07684817039342), (329.21494983513674, -195.1748612398634), (-119.373847084406, 154.47755394809568), (-186.18854500792446, -66.36183192911014), (-63.202713439044935, 104.03021988735946), (-77.8514494424033, -234.33454431711834), (82.56763394528028, -96.97870688785704), (-186.7734190811653, -195.4509730637128), (-218.30996659486217, 96.1465857079691), (75.37273816090604, 92.4244439114846), (133.82667905727823, 122.96561466590724), (110.44451701867338, 14.71942055287058)]",1,radial,130.13,1127.73,12.75,17.69,0.055,3,,,,,0,0,0,0,,,,,0,4,4,66,,,,,,,,,,,,,,,space,0.9709903001785278,,,,,70,,,,,,,,,,,,,,,,,,,,,,,,,,,1573.842778999824,None,,,,,,,,,18,21,Female,2021_Dec_16_1202,uniform_mix,2021.2.3,59.674986126120054,
c6_black_ref.xlsx,c6_black_t.xlsx,c6_black.xlsx,stims/black277.png,,277,417,0.6,60,"[(10.0, 220.0), (20.0, -150.0), (80.0, 100.0), (-80.0, 80.0), (240.0, -110.0), (-110.0, -40.0), (210.0, -10.0), (-100.0, 0.0), (70.0, -110.0), (300.0, 60.0), (-260.0, -140.0), (0.0, 120.0), (-70.0, -80.0), (-40.0, -120.0), (-150.0, 50.0), (100.0, 40.0), (80.0, -220.0), (-90.0, -200.0), (-300.0, 210.0), (190.0, 100.0), (-120.0, -100.0), (220.0, -220.0), (110.0, 170.0), (130.0, -100.0), (-160.0, 220.0), (-90.0, 140.0), (290.0, 210.0), (-270.0, 80.0), (-230.0, -20.0), (130.0, -40.0), (57.96571178982222, 223.94174721202432), (-13.8104723423413, -152.50873187514182), (93.82876312548426, 97.0273900723731), (-66.60093406924435, 82.52985531683441), (223.48673506168018, -151.09473563817238), (-120.67369373141014, -29.84664958319175), (213.72864099506793, -45.16218306130591), (-100.50326422157872, 21.648320274277552), (60.444567294990634, -121.12642664591652), (306.38747107245365, 20.018162634155942), (-291.4738293970013, -114.83156056753762), (14.840253129260944, 109.92321385549363), (-85.15820884149011, -62.60662122852232), (-54.70085414041954, -112.38908009769956), (-141.24237067429652, 75.98593218521884), (92.65540987680689, 56.60702184491247), (112.22276723505826, -212.5908094884541), (-53.144800356552366, -216.13427349287505), (-319.8076031521502, 169.93623098785497), (168.99410101724652, 140.90700626341075), (-98.12792738181534, -119.92265201910519), (228.59254286324364, -175.887013950367), (94.2637315629824, 199.01481167249472), (141.38700209229387, -82.86622378729533), (-186.91280169864842, 176.62046915542174), (-119.18532547547065, 131.88472797719788), (254.71205296481773, 266.0157752633309), (-273.93033583090175, 26.074321906558794), (-221.02742511906692, -54.363242208272226), (141.5810978853394, -19.478048577376114)]","[(10.0, 220.0), (20.0, -150.0), (80.0, 100.0), (-80.0, 80.0), (240.0, -110.0), (-110.0, -40.0), (210.0, -10.0), (-100.0, 0.0), (70.0, -110.0), (300.0, 60.0), (-260.0, -140.0), (0.0, 120.0), (-70.0, -80.0), (-40.0, -120.0), (-150.0, 50.0), (100.0, 40.0), (80.0, -220.0), (-90.0, -200.0), (-300.0, 210.0), (190.0, 100.0), (-120.0, -100.0), (220.0, -220.0), (110.0, 170.0), (130.0, -100.0), (-160.0, 220.0), (-90.0, 140.0), (290.0, 210.0), (-270.0, 80.0), (-230.0, -20.0), (130.0, -40.0)]","[(57.96571178982222, 223.94174721202432), (-13.8104723423413, -152.50873187514182), (93.82876312548426, 97.0273900723731), (-66.60093406924435, 82.52985531683441), (223.48673506168018, -151.09473563817238), (-120.67369373141014, -29.84664958319175), (213.72864099506793, -45.16218306130591), (-100.50326422157872, 21.648320274277552), (60.444567294990634, -121.12642664591652), (306.38747107245365, 20.018162634155942), (-291.4738293970013, -114.83156056753762), (14.840253129260944, 109.92321385549363), (-85.15820884149011, -62.60662122852232), (-54.70085414041954, -112.38908009769956), (-141.24237067429652, 75.98593218521884), (92.65540987680689, 56.60702184491247), (112.22276723505826, -212.5908094884541), (-53.144800356552366, -216.13427349287505), (-319.8076031521502, 169.93623098785497), (168.99410101724652, 140.90700626341075), (-98.12792738181534, -119.92265201910519), (228.59254286324364, -175.887013950367), (94.2637315629824, 199.01481167249472), (141.38700209229387, -82.86622378729533), (-186.91280169864842, 176.62046915542174), (-119.18532547547065, 131.88472797719788), (254.71205296481773, 266.0157752633309), (-273.93033583090175, 26.074321906558794), (-221.02742511906692, -54.363242208272226), (141.5810978853394, -19.478048577376114)]",1,tangential,126.59,1090.5,13.08,18.04,0.055,1,,,,,0,0,0,0,,,,,0,5,5,132,,,,,,,,,,,,,,,space,0.9198807002976537,,,,,80,,,,,,,,,,,,,,,,,,,,,,,,,,,1577.6791376001202,None,,,,,,,,,18,21,Female,2021_Dec_16_1202,uniform_mix,2021.2.3,59.674986126120054,
c6_black_ref.xlsx,c6_black_t.xlsx,c6_black.xlsx,stims/black248.png,,248,3223,0.6,56,"[(260.0, 150.0), (230.0, -180.0), (-70.0, -80.0), (-20.0, 130.0), (-160.0, -160.0), (-100.0, -20.0), (-170.0, 130.0), (140.0, -70.0), (-120.0, 30.0), (0.0, -130.0), (70.0, -80.0), (100.0, -30.0), (-300.0, -130.0), (-170.0, -60.0), (40.0, -210.0), (-240.0, 30.0), (30.0, 100.0), (-70.0, 80.0), (150.0, 160.0), (-300.0, 220.0), (-110.0, 210.0), (280.0, -40.0), (110.0, 90.0), (110.0, -140.0), (-50.0, -170.0), (200.0, 40.0), (40.0, 220.0), (110.0, 20.0), (126.2695537015883, 75.40122132716665), (134.64681269197592, -85.02216348150134), (115.83811190177548, 5.384129892603994), (80.39720403816163, -157.48636464020768), (272.93105951280694, -79.1650094978184), (-90.9986077086061, 224.7227809584051), (67.0632142920145, 210.26408909964664), (-147.94017734702265, -79.48161443364893), (-240.90370660152362, -16.35585598304141), (-356.2370782036687, 184.91156359307024), (14.103251604210243, -137.92312724575336), (199.8233320227058, 73.65372905632987), (67.95885489108468, -213.81471702258534), (-19.999744060207377, -175.16044282489048), (45.03543167722728, 96.21714001785455), (12.432121815134636, 105.6308575078693), (-123.04660783154425, 46.95516547906601), (-125.74151936202148, 5.823688686569909), (-65.84855015837326, 92.75161237242509), (-74.4504023381129, 66.93076312516789), (53.19231091716503, -90.79673399426942), (83.7705811573256, -76.42126535169112), (163.35143459556147, 140.0602840843147), (111.82411167716903, 177.67695642431218), (98.65639050241988, -51.1813691536378), (111.55553963748241, -22.882756785768123), (-292.87774722458164, -90.73002388541596), (-284.15482187671654, -184.13304664486236)]","[(260.0, 150.0), (230.0, -180.0), (-70.0, -80.0), (-20.0, 130.0), (-160.0, -160.0), (-100.0, -20.0), (-170.0, 130.0), (140.0, -70.0), (-120.0, 30.0), (0.0, -130.0), (70.0, -80.0), (100.0, -30.0), (-300.0, -130.0), (-170.0, -60.0), (40.0, -210.0), (-240.0, 30.0), (30.0, 100.0), (-70.0, 80.0), (150.0, 160.0), (-300.0, 220.0), (-110.0, 210.0), (280.0, -40.0), (110.0, 90.0), (110.0, -140.0), (-50.0, -170.0), (200.0, 40.0), (40.0, 220.0), (110.0, 20.0)]","[(126.2695537015883, 75.40122132716665), (134.64681269197592, -85.02216348150134), (115.83811190177548, 5.384129892603994), (80.39720403816163, -157.48636464020768), (272.93105951280694, -79.1650094978184), (-90.9986077086061, 224.7227809584051), (67.0632142920145, 210.26408909964664), (-147.94017734702265, -79.48161443364893), (-240.90370660152362, -16.35585598304141), (-356.2370782036687, 184.91156359307024), (14.103251604210243, -137.92312724575336), (199.8233320227058, 73.65372905632987), (67.95885489108468, -213.81471702258534), (-19.999744060207377, -175.16044282489048), (45.03543167722728, 96.21714001785455), (12.432121815134636, 105.6308575078693), (-123.04660783154425, 46.95516547906601), (-125.74151936202148, 5.823688686569909), (-65.84855015837326, 92.75161237242509), (-74.4504023381129, 66.93076312516789), (53.19231091716503, -90.79673399426942), (83.7705811573256, -76.42126535169112), (163.35143459556147, 140.0602840843147), (111.82411167716903, 177.67695642431218), (98.65639050241988, -51.1813691536378), (111.55553963748241, -22.882756785768123), (-292.87774722458164, -90.73002388541596), (-284.15482187671654, -184.13304664486236)]",0.5,tangential,122.57,1018.02,12.18,16.85,0.055,4,,,,,0,0,0,0,,,,,0,6,6,103,,,,,,,,,,,,,,,space,1.2263414999470115,,,,,65,,,,,,,,,,,,,,,,,,,,,,,,,,,1581.5168881998397,None,,,,,,,,,18,21,Female,2021_Dec_16_1202,uniform_mix,2021.2.3,59.674986126120054,
c6_black_ref.xlsx,c6_black_t.xlsx,c6_black.xlsx,stims/black145.png,,145,3343,0.6,54,"[(300.0, -130.0), (-130.0, 10.0), (230.0, 160.0), (-20.0, 190.0), (-280.0, 30.0), (70.0, 80.0), (170.0, -170.0), (-70.0, 80.0), (80.0, 160.0), (0.0, -130.0), (-80.0, 140.0), (80.0, -160.0), (130.0, 100.0), (-60.0, -210.0), (-40.0, -100.0), (130.0, 10.0), (190.0, -60.0), (-230.0, 220.0), (-200.0, -60.0), (-120.0, -70.0), (50.0, -90.0), (-140.0, -150.0), (230.0, 30.0), (-180.0, 90.0), (110.0, -70.0), (-260.0, -220.0), (0.0, 100.0), (-228.18248611927834, -52.662397207511404), (93.22203526989757, -69.07675227763984), (125.74003809760067, -86.24069463717888), (1.902678780738034, 84.4313415401396), (-8.038254930623633, 114.35067040129076), (-118.72819488667866, -115.17582026221481), (-144.8368429510954, -180.3113810705805), (-202.58123233308552, -185.53920207913563), (-311.31685418708213, -232.68836391561666), (-49.431846444397166, -177.59931652682343), (-68.98176065051379, -241.00264621871125), (107.4329123594611, 15.699424079409248), (144.46067290451285, 8.600483302806499), (-98.14521027090629, -62.018104385643525), (-137.57796613480187, -68.38735990147588), (205.8900941621036, 35.017810419982865), (274.85545873217654, 21.54180977088297), (-27.9780397717913, -84.07230426801358), (-50.61782064278215, -120.09726591678381), (51.560818361966, -75.8661682950998), (62.49014298089536, -100.09511289464595), (152.24166660429148, -45.62300512309693), (233.86610773696023, -73.66735765639626), (-155.26136361698482, 84.8515192787921), (-203.299531427848, 113.92826684437215), (-182.96790468263438, 195.56309816069842), (-257.49219434437646, 258.4902594156084)]","[(300.0, -130.0), (-130.0, 10.0), (230.0, 160.0), (-20.0, 190.0), (-280.0, 30.0), (70.0, 80.0), (170.0, -170.0), (-70.0, 80.0), (80.0, 160.0), (0.0, -130.0), (-80.0, 140.0), (80.0, -160.0), (130.0, 100.0), (-60.0, -210.0), (-40.0, -100.0), (130.0, 10.0), (190.0, -60.0), (-230.0, 220.0), (-200.0, -60.0), (-120.0, -70.0), (50.0, -90.0), (-140.0, -150.0), (230.0, 30.0), (-180.0, 90.0), (110.0, -70.0), (-260.0, -220.0), (0.0, 100.0)]","[(-228.18248611927834, -52.662397207511404), (93.22203526989757, -69.07675227763984), (125.74003809760067, -86.24069463717888), (1.902678780738034, 84.4313415401396), (-8.038254930623633, 114.35067040129076), (-118.72819488667866, -115.17582026221481), (-144.8368429510954, -180.3113810705805), (-202.58123233308552, -185.53920207913563), (-311.31685418708213, -232.68836391561666), (-49.431846444397166, -177.59931652682343), (-68.98176065051379, -241.00264621871125), (107.4329123594611, 15.699424079409248), (144.46067290451285, 8.600483302806499), (-98.14521027090629, -62.018104385643525), (-137.57796613480187, -68.38735990147588), (205.8900941621036, 35.017810419982865), (274.85545873217654, 21.54180977088297), (-27.9780397717913, -84.07230426801358), (-50.61782064278215, -120.09726591678381), (51.560818361966, -75.8661682950998), (62.49014298089536, -100.09511289464595), (152.24166660429148, -45.62300512309693), (233.86610773696023, -73.66735765639626), (-155.26136361698482, 84.8515192787921), (-203.299531427848, 113.92826684437215), (-182.96790468263438, 195.56309816069842), (-257.49219434437646, 258.4902594156084)]",0,radial,125.55,991.16,12.35,16.88,0.0545,1,,,,,0,0,0,0,,,,,0,7,7,0,,,,,,,,,,,,,,,space,0.9759041997604072,,,,,60,,,,,,,,,,,,,,,,,,,,,,,,,,,1587.491924900096,None,,,,,,,,,18,21,Female,2021_Dec_16_1202,uniform_mix,2021.2.3,59.674986126120054,
c6_black_ref.xlsx,c6_black_t.xlsx,c6_black.xlsx,stims/blacksub11.png,,11,None,0.6,2,"[(80.0, -120.0), (130.0, -20.0)]",None,None,None,None,None,None,None,None,None,None,,,,,0,0,0,0,,,,,0,8,8,145,,,,,,,,,,,,,,,space,0.9796438999474049,,,,,2,,,,,,,,,,,,,,,,,,,,,,,,,,,1593.2601939998567,None,,,,,,,,,18,21,Female,2021_Dec_16_1202,uniform_mix,2021.2.3,59.674986126120054,
c6_black_ref.xlsx,c6_black_t.xlsx,c6_black.xlsx,stims/black262.png,,262,3894,0.6,64,"[(-280.0, 50.0), (-170.0, 0.0), (300.0, -10.0), (230.0, -90.0), (10.0, -220.0), (140.0, 220.0), (-150.0, -180.0), (170.0, -10.0), (50.0, -110.0), (260.0, 190.0), (30.0, 160.0), (-130.0, -70.0), (-280.0, 210.0), (-60.0, -80.0), (-10.0, -100.0), (120.0, -100.0), (130.0, 100.0), (-60.0, 80.0), (-260.0, -130.0), (-110.0, 20.0), (70.0, 110.0), (-50.0, -150.0), (210.0, 60.0), (260.0, -220.0), (10.0, 100.0), (110.0, 10.0), (-50.0, 210.0), (90.0, -50.0), (-30.0, 120.0), (150.0, -180.0), (-140.0, 210.0), (-120.0, 80.0), (-112.84029109926433, 97.80492769274167), (-79.58106478893353, -65.92211089227318), (-24.14061783977874, -102.35781607973166), (133.05484175528287, -209.82605485169896), (93.40307665778559, -127.54856507593159), (-74.01015504441847, -131.73855210853634), (-16.540207693675114, 126.48952891153273), (22.716773626603214, 93.43584668505257), (-71.19081324388335, 68.20772119776029), (-316.84067890223963, 164.96926010566807), (96.50388939310145, -40.89149562422094), (-77.3213443142225, 220.6274971970107), (-124.86869675905498, -98.62936494285381), (-252.58623020999588, -174.9096139061759), (107.6349249414271, 35.31630352116812), (-160.52283538157948, 191.2447497282486), (213.18509229494055, -280.18879113665054), (317.78623929346355, -177.63724918576463), (42.91324276639503, 142.65856959431218), (7.493406011428647, 172.79813266465618), (35.059227108385784, -124.16473706616605), (62.24338838578282, -97.2496934378762), (138.92140360809395, 78.22926983563589), (115.87937088448417, 115.10949768855856), (83.15964052211726, 98.41022318771039), (54.37056375977062, 127.77422840958894), (-102.04749944867365, 44.901661314754165), (-117.79338419969626, -2.0664403758888454), (222.50769253530189, 12.220299721259579), (192.94141299392828, 92.95006902526225), (312.7406824823628, 142.6863290166017), (218.89602123022988, 256.2603817077668)]","[(-280.0, 50.0), (-170.0, 0.0), (300.0, -10.0), (230.0, -90.0), (10.0, -220.0), (140.0, 220.0), (-150.0, -180.0), (170.0, -10.0), (50.0, -110.0), (260.0, 190.0), (30.0, 160.0), (-130.0, -70.0), (-280.0, 210.0), (-60.0, -80.0), (-10.0, -100.0), (120.0, -100.0), (130.0, 100.0), (-60.0, 80.0), (-260.0, -130.0), (-110.0, 20.0), (70.0, 110.0), (-50.0, -150.0), (210.0, 60.0), (260.0, -220.0), (10.0, 100.0), (110.0, 10.0), (-50.0, 210.0), (90.0, -50.0), (-30.0, 120.0), (150.0, -180.0), (-140.0, 210.0), (-120.0, 80.0)]","[(-112.84029109926433, 97.80492769274167), (-79.58106478893353, -65.92211089227318), (-24.14061783977874, -102.35781607973166), (133.05484175528287, -209.82605485169896), (93.40307665778559, -127.54856507593159), (-74.01015504441847, -131.73855210853634), (-16.540207693675114, 126.48952891153273), (22.716773626603214, 93.43584668505257), (-71.19081324388335, 68.20772119776029), (-316.84067890223963, 164.96926010566807), (96.50388939310145, -40.89149562422094), (-77.3213443142225, 220.6274971970107), (-124.86869675905498, -98.62936494285381), (-252.58623020999588, -174.9096139061759), (107.6349249414271, 35.31630352116812), (-160.52283538157948, 191.2447497282486), (213.18509229494055, -280.18879113665054), (317.78623929346355, -177.63724918576463), (42.91324276639503, 142.65856959431218), (7.493406011428647, 172.79813266465618), (35.059227108385784, -124.16473706616605), (62.24338838578282, -97.2496934378762), (138.92140360809395, 78.22926983563589), (115.87937088448417, 115.10949768855856), (83.15964052211726, 98.41022318771039), (54.37056375977062, 127.77422840958894), (-102.04749944867365, 44.901661314754165), (-117.79338419969626, -2.0664403758888454), (222.50769253530189, 12.220299721259579), (192.94141299392828, 92.95006902526225), (312.7406824823628, 142.6863290166017), (218.89602123022988, 256.2603817077668)]",0.5,tangential,130.68,1165.4,12.4,17.13,0.0549,2,,,,,0,0,0,0,,,,,0,9,9,117,,,,,,,,,,,,,,,space,0.897274199873209,,,,,85,,,,,,,,,,,,,,,,,,,,,,,,,,,1596.2086649001576,None,,,,,,,,,18,21,Female,2021_Dec_16_1202,uniform_mix,2021.2.3,59.674986126120054,
c6_black_ref.xlsx,c6_black_t.xlsx,c6_black.xlsx,stims/black156.png,,156,1818,0.6,58,"[(-30.0, 120.0), (-160.0, -10.0), (230.0, 100.0), (30.0, 220.0), (240.0, -210.0), (-190.0, -220.0), (90.0, -90.0), (40.0, -100.0), (290.0, -60.0), (260.0, 220.0), (-220.0, 90.0), (-80.0, 190.0), (-100.0, -20.0), (-30.0, -170.0), (190.0, 0.0), (110.0, -180.0), (160.0, -100.0), (110.0, 160.0), (-90.0, 80.0), (-130.0, 50.0), (-210.0, 200.0), (-230.0, -100.0), (100.0, -10.0), (-290.0, 10.0), (-20.0, -100.0), (130.0, 90.0), (30.0, 110.0), (-110.0, -80.0), (130.0, 30.0), (161.25718857221574, 101.6745981347617), (116.35845817750865, 20.70688573323724), (149.2544592603868, 27.866333033447262), (-102.62838764058263, 46.361716031618634), (-155.96303508623538, 50.13749588674576), (168.29173931684417, 4.196137343311889), (209.17055774789267, -10.135456780569651), (-205.56358148155607, -68.31882409691762), (-283.52105907164275, -110.53720749308555), (82.21545259571926, -15.293659874113342), (115.67844161347237, -9.18461581257208), (82.71038843949094, 136.455263712303), (114.99662087208611, 187.1140530568135), (-252.0774182619636, 32.923853024977646), (-346.685996555496, 4.870444079229124), (-70.27206181647061, 62.072629419356566), (-101.71985841147003, 89.73978310746165), (131.19016282964554, -79.73153903089133), (191.26026154356845, -113.50332299967194), (-160.32888161375547, 154.99903380989582), (-242.7113663580124, 214.83732027737068), (-88.60896047370463, -59.865438668828354), (-125.21523224849331, -92.91563008897104), (-19.657290558508734, -82.0504349979999), (-15.963909140056408, -115.53472530064862), (83.22080201667151, -165.76409164699191), (134.32826405940665, -222.4194341178248), (27.882139443097575, 93.73317268994266), (30.91382387393683, 125.02475291001646)]","[(-30.0, 120.0), (-160.0, -10.0), (230.0, 100.0), (30.0, 220.0), (240.0, -210.0), (-190.0, -220.0), (90.0, -90.0), (40.0, -100.0), (290.0, -60.0), (260.0, 220.0), (-220.0, 90.0), (-80.0, 190.0), (-100.0, -20.0), (-30.0, -170.0), (190.0, 0.0), (110.0, -180.0), (160.0, -100.0), (110.0, 160.0), (-90.0, 80.0), (-130.0, 50.0), (-210.0, 200.0), (-230.0, -100.0), (100.0, -10.0), (-290.0, 10.0), (-20.0, -100.0), (130.0, 90.0), (30.0, 110.0), (-110.0, -80.0), (130.0, 30.0)]","[(161.25718857221574, 101.6745981347617), (116.35845817750865, 20.70688573323724), (149.2544592603868, 27.866333033447262), (-102.62838764058263, 46.361716031618634), (-155.96303508623538, 50.13749588674576), (168.29173931684417, 4.196137343311889), (209.17055774789267, -10.135456780569651), (-205.56358148155607, -68.31882409691762), (-283.52105907164275, -110.53720749308555), (82.21545259571926, -15.293659874113342), (115.67844161347237, -9.18461581257208), (82.71038843949094, 136.455263712303), (114.99662087208611, 187.1140530568135), (-252.0774182619636, 32.923853024977646), (-346.685996555496, 4.870444079229124), (-70.27206181647061, 62.072629419356566), (-101.71985841147003, 89.73978310746165), (131.19016282964554, -79.73153903089133), (191.26026154356845, -113.50332299967194), (-160.32888161375547, 154.99903380989582), (-242.7113663580124, 214.83732027737068), (-88.60896047370463, -59.865438668828354), (-125.21523224849331, -92.91563008897104), (-19.657290558508734, -82.0504349979999), (-15.963909140056408, -115.53472530064862), (83.22080201667151, -165.76409164699191), (134.32826405940665, -222.4194341178248), (27.882139443097575, 93.73317268994266), (30.91382387393683, 125.02475291001646)]",0,radial,123.24,1044.42,12.05,16.57,0.0555,4,,,,,0,0,0,0,,,,,0,10,10,11,,,,,,,,,,,,,,,space,0.7276943000033498,,,,,75,,,,,,,,,,,,,,,,,,,,,,,,,,,1599.8868240001611,None,,,,,,,,,18,21,Female,2021_Dec_16_1202,uniform_mix,2021.2.3,59.674986126120054,
c6_black_ref.xlsx,c6_black_t.xlsx,c6_black.xlsx,stims/black162.png,,162,1382,0.6,62,"[(-80.0, -110.0), (40.0, -190.0), (-30.0, -110.0), (-220.0, -110.0), (60.0, -80.0), (100.0, 60.0), (-130.0, 220.0), (290.0, 150.0), (-120.0, 120.0), (-40.0, 170.0), (290.0, -70.0), (-240.0, 140.0), (50.0, 120.0), (-140.0, 30.0), (110.0, 0.0), (-230.0, 20.0), (260.0, -220.0), (-280.0, -220.0), (170.0, -30.0), (-100.0, -220.0), (-80.0, -60.0), (110.0, -60.0), (-50.0, 110.0), (0.0, 100.0), (-150.0, -40.0), (-100.0, -10.0), (180.0, 80.0), (100.0, 200.0), (-90.0, 60.0), (110.0, 120.0), (130.0, -130.0), (-3.2087714358568356, 118.17496702672237), (80.68655525085626, 92.80584279644314), (110.65282253751842, 140.89353536087927), (-194.05783433734643, 5.035173225407966), (-278.85739475561354, 28.278947209792506), (103.53043058317692, -99.74053415355449), (148.13630949982863, -138.73123153288708), (-213.10676453858278, -162.3207993476372), (-317.7803496311288, -235.09525385553377), (206.90709521421024, -209.6771558951297), (300.39326792312823, -248.7570749285512), (-74.38572783357807, 60.23439154830143), (-104.44732400211416, 59.51230003956465), (-125.36005738790169, -31.19302430783917), (-165.76554142543523, -44.77299176294488), (-79.30570045786962, -171.54440628479463), (-122.28280823724877, -254.38576582985795), (-40.86613899238836, 84.57473615716808), (-64.67408239607839, 133.39961414312143), (-66.64271375949394, -59.81212509146702), (-90.71535079318224, -71.24711680104228), (156.0244579304126, 55.92457225567391), (199.88986004851716, 96.41090437274994), (89.19161474797428, 176.45851977719929), (116.02553237521008, 228.78234296401678), (148.59320463440355, -27.97386247560323), (189.9335576060368, -36.177192456062386), (99.0669783044943, -47.073107089860976), (125.18395545279401, -66.75968914995926), (-88.04727605975316, -0.6176092829519781), (-117.81257881303836, -9.05955577581224)]","[(-80.0, -110.0), (40.0, -190.0), (-30.0, -110.0), (-220.0, -110.0), (60.0, -80.0), (100.0, 60.0), (-130.0, 220.0), (290.0, 150.0), (-120.0, 120.0), (-40.0, 170.0), (290.0, -70.0), (-240.0, 140.0), (50.0, 120.0), (-140.0, 30.0), (110.0, 0.0), (-230.0, 20.0), (260.0, -220.0), (-280.0, -220.0), (170.0, -30.0), (-100.0, -220.0), (-80.0, -60.0), (110.0, -60.0), (-50.0, 110.0), (0.0, 100.0), (-150.0, -40.0), (-100.0, -10.0), (180.0, 80.0), (100.0, 200.0), (-90.0, 60.0), (110.0, 120.0), (130.0, -130.0)]","[(-3.2087714358568356, 118.17496702672237), (80.68655525085626, 92.80584279644314), (110.65282253751842, 140.89353536087927), (-194.05783433734643, 5.035173225407966), (-278.85739475561354, 28.278947209792506), (103.53043058317692, -99.74053415355449), (148.13630949982863, -138.73123153288708), (-213.10676453858278, -162.3207993476372), (-317.7803496311288, -235.09525385553377), (206.90709521421024, -209.6771558951297), (300.39326792312823, -248.7570749285512), (-74.38572783357807, 60.23439154830143), (-104.44732400211416, 59.51230003956465), (-125.36005738790169, -31.19302430783917), (-165.76554142543523, -44.77299176294488), (-79.30570045786962, -171.54440628479463), (-122.28280823724877, -254.38576582985795), (-40.86613899238836, 84.57473615716808), (-64.67408239607839, 133.39961414312143), (-66.64271375949394, -59.81212509146702), (-90.71535079318224, -71.24711680104228), (156.0244579304126, 55.92457225567391), (199.88986004851716, 96.41090437274994), (89.19161474797428, 176.45851977719929), (116.02553237521008, 228.78234296401678), (148.59320463440355, -27.97386247560323), (189.9335576060368, -36.177192456062386), (99.0669783044943, -47.073107089860976), (125.18395545279401, -66.75968914995926), (-88.04727605975316, -0.6176092829519781), (-117.81257881303836, -9.05955577581224)]",0,radial,129.3,1117.3,12.01,16.62,0.0555,2,,,,,0,0,0,0,,,,,0,11,11,17,,,,,,,,,,,,,,,space,0.8107686000876129,,,,,60,,,,,,,,,,,,,,,,,,,,,,,,,,,1603.9350091000088,None,,,,,,,,,18,21,Female,2021_Dec_16_1202,uniform_mix,2021.2.3,59.674986126120054,
c6_black_ref.xlsx,c6_black_t.xlsx,c6_black.xlsx,stims/black167.png,,167,3178,0.6,64,"[(-50.0, -120.0), (300.0, 80.0), (180.0, 80.0), (30.0, 100.0), (-10.0, 130.0), (170.0, 210.0), (-300.0, -110.0), (-130.0, -90.0), (170.0, -200.0), (80.0, 70.0), (-200.0, -200.0), (110.0, 20.0), (220.0, 0.0), (-50.0, 100.0), (-170.0, 70.0), (-100.0, -40.0), (-110.0, 110.0), (-30.0, -190.0), (-140.0, 200.0), (60.0, -170.0), (80.0, -90.0), (140.0, -110.0), (-290.0, 190.0), (20.0, -100.0), (-40.0, 190.0), (300.0, -200.0), (-100.0, 40.0), (50.0, 210.0), (-280.0, 40.0), (-180.0, -40.0), (80.0, 130.0), (130.0, -40.0), (-154.85695872813127, -32.98592083249099), (-218.4483581749293, -41.48437485992035), (-104.16125233796666, 87.81126591113035), (-135.11457054762852, 132.00781691733937), (-50.21375942942413, 162.33613958597198), (-52.28676235812601, 208.2770420986361), (58.35820137767771, 104.1759825089869), (78.79552013941444, 152.51337423236566), (41.376393932801776, 162.35580563173616), (63.38982858975189, 257.6171336195684), (66.23985873604472, -76.98181005948982), (97.7304979027623, -111.51032212582781), (-221.35677500797527, 18.38473115589691), (-342.42221096506887, 40.087884381742846), (-33.964911198260715, -159.62829223456808), (-44.868233176714035, -216.22666927050506), (-113.74710547469718, 166.79852930365223), (-167.902032131783, 234.4484055921396), (39.51396784645627, -149.36689191091574), (68.04200402597249, -190.94495719133408), (14.184780544037626, -80.2869950807679), (23.486991325722265, -120.5999365626381), (101.68973152938321, -34.46753351054119), (145.89100622911724, -37.27151694401251), (-232.56856458864328, 148.32069635312092), (-344.6208953465874, 200.098593992669), (233.85242883747335, -164.63383245550003), (323.2504852927616, -249.61600112766803), (119.5389331817792, -80.0028319004976), (164.10271566269154, -108.54410612835036), (-86.76679626738327, 32.082144096789136), (-117.47710995261062, 38.68806243461645)]","[(-50.0, -120.0), (300.0, 80.0), (180.0, 80.0), (30.0, 100.0), (-10.0, 130.0), (170.0, 210.0), (-300.0, -110.0), (-130.0, -90.0), (170.0, -200.0), (80.0, 70.0), (-200.0, -200.0), (110.0, 20.0), (220.0, 0.0), (-50.0, 100.0), (-170.0, 70.0), (-100.0, -40.0), (-110.0, 110.0), (-30.0, -190.0), (-140.0, 200.0), (60.0, -170.0), (80.0, -90.0), (140.0, -110.0), (-290.0, 190.0), (20.0, -100.0), (-40.0, 190.0), (300.0, -200.0), (-100.0, 40.0), (50.0, 210.0), (-280.0, 40.0), (-180.0, -40.0), (80.0, 130.0), (130.0, -40.0)]","[(-154.85695872813127, -32.98592083249099), (-218.4483581749293, -41.48437485992035), (-104.16125233796666, 87.81126591113035), (-135.11457054762852, 132.00781691733937), (-50.21375942942413, 162.33613958597198), (-52.28676235812601, 208.2770420986361), (58.35820137767771, 104.1759825089869), (78.79552013941444, 152.51337423236566), (41.376393932801776, 162.35580563173616), (63.38982858975189, 257.6171336195684), (66.23985873604472, -76.98181005948982), (97.7304979027623, -111.51032212582781), (-221.35677500797527, 18.38473115589691), (-342.42221096506887, 40.087884381742846), (-33.964911198260715, -159.62829223456808), (-44.868233176714035, -216.22666927050506), (-113.74710547469718, 166.79852930365223), (-167.902032131783, 234.4484055921396), (39.51396784645627, -149.36689191091574), (68.04200402597249, -190.94495719133408), (14.184780544037626, -80.2869950807679), (23.486991325722265, -120.5999365626381), (101.68973152938321, -34.46753351054119), (145.89100622911724, -37.27151694401251), (-232.56856458864328, 148.32069635312092), (-344.6208953465874, 200.098593992669), (233.85242883747335, -164.63383245550003), (323.2504852927616, -249.61600112766803), (119.5389331817792, -80.0028319004976), (164.10271566269154, -108.54410612835036), (-86.76679626738327, 32.082144096789136), (-117.47710995261062, 38.68806243461645)]",0,radial,132.18,1164.36,12.69,17.44,0.055,3,,,,,0,0,0,0,,,,,0,12,12,22,,,,,,,,,,,,,,,space,0.73850669991225,,,,,80,,,,,,,,,,,,,,,,,,,,,,,,,,,1607.9010240002535,None,,,,,,,,,18,21,Female,2021_Dec_16_1202,uniform_mix,2021.2.3,59.674986126120054,
c6_black_ref.xlsx,c6_black_t.xlsx,c6_black.xlsx,stims/black189.png,,189,1089,0.6,64,"[(-140.0, 190.0), (90.0, 50.0), (-290.0, 180.0), (0.0, -200.0), (10.0, -100.0), (-100.0, 10.0), (-100.0, 70.0), (200.0, -80.0), (140.0, 30.0), (-120.0, -210.0), (-120.0, -30.0), (20.0, 140.0), (300.0, -30.0), (-160.0, 80.0), (100.0, -30.0), (120.0, 190.0), (120.0, -100.0), (260.0, 200.0), (240.0, 60.0), (180.0, -190.0), (-60.0, -140.0), (-10.0, 210.0), (-180.0, -10.0), (150.0, 110.0), (-270.0, -200.0), (80.0, 100.0), (-210.0, -90.0), (-40.0, 110.0), (50.0, -140.0), (-90.0, -90.0), (70.0, -80.0), (-280.0, 30.0), (169.68485956731806, -161.77854873676375), (123.0241150089775, 14.215243560828318), (108.3151202675284, -83.90993129453754), (217.21433920676282, 41.07350502410171), (29.137182133830603, 121.29776074124818), (-143.88509042371635, -1.7786065608833468), (-72.65758313115873, -69.60552807168686), (114.22189959660193, 90.67553034349186), (-236.70227242419298, -87.83697304785738), (-47.83610110285981, 119.57786722176333), (344.9915747191825, -25.802447688115038), (89.24050966180077, 113.2987973114395), (83.25388846908659, -97.26603397053799), (-187.2280944022453, 101.64525304085508), (122.44078429954348, 227.37743916106066), (-5.109472660988164, 251.33129216607944), (-231.33614116951617, 17.516663023886903), (-314.7780252797789, 28.94114336777072), (87.6254254229376, -31.399292759567892), (112.53081439040369, -38.25555447594579), (222.86076378502398, 166.5628291545618), (278.94941992533575, 237.7336860934198), (-93.12281867691348, -161.87398612367218), (-127.6534579280065, -247.78831920793886), (-229.50750335125434, -166.05393317357522), (-326.5182020414344, -226.09374651914618), (-46.91920944710987, -124.57755916869039), (-67.87425002129548, -165.72099738929026), (46.73280488120681, -124.20711449017347), (59.70867191511087, -156.30308770858952), (-91.88682470042531, -28.57740318509908), (-146.39031059207213, -31.77965011938356)]","[(-140.0, 190.0), (90.0, 50.0), (-290.0, 180.0), (0.0, -200.0), (10.0, -100.0), (-100.0, 10.0), (-100.0, 70.0), (200.0, -80.0), (140.0, 30.0), (-120.0, -210.0), (-120.0, -30.0), (20.0, 140.0), (300.0, -30.0), (-160.0, 80.0), (100.0, -30.0), (120.0, 190.0), (120.0, -100.0), (260.0, 200.0), (240.0, 60.0), (180.0, -190.0), (-60.0, -140.0), (-10.0, 210.0), (-180.0, -10.0), (150.0, 110.0), (-270.0, -200.0), (80.0, 100.0), (-210.0, -90.0), (-40.0, 110.0), (50.0, -140.0), (-90.0, -90.0), (70.0, -80.0), (-280.0, 30.0)]","[(169.68485956731806, -161.77854873676375), (123.0241150089775, 14.215243560828318), (108.3151202675284, -83.90993129453754), (217.21433920676282, 41.07350502410171), (29.137182133830603, 121.29776074124818), (-143.88509042371635, -1.7786065608833468), (-72.65758313115873, -69.60552807168686), (114.22189959660193, 90.67553034349186), (-236.70227242419298, -87.83697304785738), (-47.83610110285981, 119.57786722176333), (344.9915747191825, -25.802447688115038), (89.24050966180077, 113.2987973114395), (83.25388846908659, -97.26603397053799), (-187.2280944022453, 101.64525304085508), (122.44078429954348, 227.37743916106066), (-5.109472660988164, 251.33129216607944), (-231.33614116951617, 17.516663023886903), (-314.7780252797789, 28.94114336777072), (87.6254254229376, -31.399292759567892), (112.53081439040369, -38.25555447594579), (222.86076378502398, 166.5628291545618), (278.94941992533575, 237.7336860934198), (-93.12281867691348, -161.87398612367218), (-127.6534579280065, -247.78831920793886), (-229.50750335125434, -166.05393317357522), (-326.5182020414344, -226.09374651914618), (-46.91920944710987, -124.57755916869039), (-67.87425002129548, -165.72099738929026), (46.73280488120681, -124.20711449017347), (59.70867191511087, -156.30308770858952), (-91.88682470042531, -28.57740318509908), (-146.39031059207213, -31.77965011938356)]",0.5,radial,131.15,1163.27,12.72,17.52,0.055,1,,,,,0,0,0,0,,,,,0,13,13,44,,,,,,,,,,,,,,,space,0.6632713996805251,,,,,80,,,,,,,,,,,,,,,,,,,,,,,,,,,1610.690680200234,None,,,,,,,,,18,21,Female,2021_Dec_16_1202,uniform_mix,2021.2.3,59.674986126120054,
c6_black_ref.xlsx,c6_black_t.xlsx,c6_black.xlsx,stims/black280.png,,280,726,0.6,60,"[(40.0, -150.0), (10.0, 100.0), (-70.0, 220.0), (150.0, 10.0), (270.0, -80.0), (-90.0, -200.0), (-250.0, 200.0), (-120.0, 150.0), (-80.0, 70.0), (-160.0, 60.0), (260.0, 200.0), (140.0, 120.0), (-240.0, -10.0), (60.0, 100.0), (-100.0, -30.0), (250.0, 70.0), (-110.0, 20.0), (100.0, 30.0), (0.0, 170.0), (300.0, -210.0), (-150.0, -70.0), (120.0, 220.0), (170.0, -130.0), (-250.0, -180.0), (-40.0, 110.0), (110.0, -220.0), (10.0, -100.0), (100.0, -30.0), (-80.0, -120.0), (90.0, -80.0), (3.503314456919881, -160.37984576315387), (33.139817006540184, 96.26728437357124), (-30.561880688937038, 242.8790341800532), (161.77581833680065, -4.857265471945311), (251.9474743480303, -125.78404372897074), (-120.7290815821932, -205.06907720904235), (-202.5131692426231, 231.63064205713485), (-96.86539823363192, 181.01064741548242), (-69.7740346869125, 89.22463011189154), (-156.3320222104865, 87.03463470644255), (296.4897564232849, 140.60393251404602), (166.0822993947594, 99.86990478263169), (-254.83866688015775, 38.904671330706435), (70.77357485881416, 95.10186116891244), (-105.17940922686654, -17.86132188845407), (231.98532884268477, 102.65008142525761), (-111.77611143278331, 0.2132808656787688), (96.80861787863415, 44.410098703042124), (-30.012523357280855, 164.44549001772313), (354.2093918559116, -172.88341136289807), (-138.69275357619864, -97.98702304717473), (74.43953961822433, 240.23381791582847), (201.36075540182787, -118.02443688418339), (-237.0336346168695, -225.57855952531696), (-56.90229559713971, 102.73657458873899), (130.49614552592067, -189.5499098379069), (26.402028838800305, -102.95247404808299), (111.94081640322514, -12.805257020887737), (-62.78463597578414, -126.33270617105869), (106.9588814941957, -71.38316491678151)]","[(40.0, -150.0), (10.0, 100.0), (-70.0, 220.0), (150.0, 10.0), (270.0, -80.0), (-90.0, -200.0), (-250.0, 200.0), (-120.0, 150.0), (-80.0, 70.0), (-160.0, 60.0), (260.0, 200.0), (140.0, 120.0), (-240.0, -10.0), (60.0, 100.0), (-100.0, -30.0), (250.0, 70.0), (-110.0, 20.0), (100.0, 30.0), (0.0, 170.0), (300.0, -210.0), (-150.0, -70.0), (120.0, 220.0), (170.0, -130.0), (-250.0, -180.0), (-40.0, 110.0), (110.0, -220.0), (10.0, -100.0), (100.0, -30.0), (-80.0, -120.0), (90.0, -80.0)]","[(3.503314456919881, -160.37984576315387), (33.139817006540184, 96.26728437357124), (-30.561880688937038, 242.8790341800532), (161.77581833680065, -4.857265471945311), (251.9474743480303, -125.78404372897074), (-120.7290815821932, -205.06907720904235), (-202.5131692426231, 231.63064205713485), (-96.86539823363192, 181.01064741548242), (-69.7740346869125, 89.22463011189154), (-156.3320222104865, 87.03463470644255), (296.4897564232849, 140.60393251404602), (166.0822993947594, 99.86990478263169), (-254.83866688015775, 38.904671330706435), (70.77357485881416, 95.10186116891244), (-105.17940922686654, -17.86132188845407), (231.98532884268477, 102.65008142525761), (-111.77611143278331, 0.2132808656787688), (96.80861787863415, 44.410098703042124), (-30.012523357280855, 164.44549001772313), (354.2093918559116, -172.88341136289807), (-138.69275357619864, -97.98702304717473), (74.43953961822433, 240.23381791582847), (201.36075540182787, -118.02443688418339), (-237.0336346168695, -225.57855952531696), (-56.90229559713971, 102.73657458873899), (130.49614552592067, -189.5499098379069), (26.402028838800305, -102.95247404808299), (111.94081640322514, -12.805257020887737), (-62.78463597578414, -126.33270617105869), (106.9588814941957, -71.38316491678151)]",1,tangential,127.18,1090.59,12.58,17.37,0.055,4,,,,,0,0,0,0,,,,,0,14,14,135,,,,,,,,,,,,,,,space,0.6207675002515316,,,,,70,,,,,,,,,,,,,,,,,,,,,,,,,,,1613.588508500252,None,,,,,,,,,18,21,Female,2021_Dec_16_1202,uniform_mix,2021.2.3,59.674986126120054,
c6_black_ref.xlsx,c6_black_t.xlsx,c6_black.xlsx,stims/black195.png,,195,3879,0.6,54,"[(140.0, 170.0), (90.0, -60.0), (250.0, -220.0), (-30.0, -200.0), (-210.0, 10.0), (270.0, -100.0), (-220.0, -220.0), (130.0, -160.0), (-160.0, 70.0), (-60.0, -90.0), (-110.0, -150.0), (-140.0, -50.0), (20.0, -140.0), (-110.0, 10.0), (100.0, 0.0), (170.0, 60.0), (40.0, 120.0), (-20.0, 140.0), (-130.0, 170.0), (-90.0, 70.0), (-240.0, 150.0), (230.0, 130.0), (-230.0, -100.0), (150.0, -40.0), (40.0, 190.0), (70.0, 80.0), (240.0, 0.0), (114.60152827799035, 147.93822946466355), (78.42936377749903, -53.46933455167486), (202.23132534873056, -205.6117914380215), (-35.72588463328115, -162.38612981021055), (-160.2166966426612, 5.073145070900662), (251.0001684310311, -71.17164653166029), (-184.83213817383748, -187.81270749703052), (106.89292533045696, -118.38959853263871), (-133.024611512055, 61.86151237471945), (-53.24890796574076, -72.61860584301635), (-87.01545013581199, -128.30855088688253), (-120.99109392615728, -41.93639734080932), (10.590250689491715, -124.82088493334794), (-130.08063361833314, 4.388877240293667), (111.3802182170214, 1.057324175356511), (206.8246890864674, 72.4457302734775), (49.14114658252598, 149.5391416304839), (-15.20178243278285, 167.3178089386518), (-157.74039508734572, 203.58810441733803), (-108.68048141938355, 75.59518175524039), (-297.0788136965499, 188.92612883238692), (265.156806655247, 168.9588145980532), (-264.14029714756913, -97.71767426691525), (168.98843820861254, -33.09331825466158), (44.393025317955626, 235.61353561935465), (74.02257522480943, 94.56829097568817), (262.74958003475064, -21.877457670697325)]","[(140.0, 170.0), (90.0, -60.0), (250.0, -220.0), (-30.0, -200.0), (-210.0, 10.0), (270.0, -100.0), (-220.0, -220.0), (130.0, -160.0), (-160.0, 70.0), (-60.0, -90.0), (-110.0, -150.0), (-140.0, -50.0), (20.0, -140.0), (-110.0, 10.0), (100.0, 0.0), (170.0, 60.0), (40.0, 120.0), (-20.0, 140.0), (-130.0, 170.0), (-90.0, 70.0), (-240.0, 150.0), (230.0, 130.0), (-230.0, -100.0), (150.0, -40.0), (40.0, 190.0), (70.0, 80.0), (240.0, 0.0)]","[(114.60152827799035, 147.93822946466355), (78.42936377749903, -53.46933455167486), (202.23132534873056, -205.6117914380215), (-35.72588463328115, -162.38612981021055), (-160.2166966426612, 5.073145070900662), (251.0001684310311, -71.17164653166029), (-184.83213817383748, -187.81270749703052), (106.89292533045696, -118.38959853263871), (-133.024611512055, 61.86151237471945), (-53.24890796574076, -72.61860584301635), (-87.01545013581199, -128.30855088688253), (-120.99109392615728, -41.93639734080932), (10.590250689491715, -124.82088493334794), (-130.08063361833314, 4.388877240293667), (111.3802182170214, 1.057324175356511), (206.8246890864674, 72.4457302734775), (49.14114658252598, 149.5391416304839), (-15.20178243278285, 167.3178089386518), (-157.74039508734572, 203.58810441733803), (-108.68048141938355, 75.59518175524039), (-297.0788136965499, 188.92612883238692), (265.156806655247, 168.9588145980532), (-264.14029714756913, -97.71767426691525), (168.98843820861254, -33.09331825466158), (44.393025317955626, 235.61353561935465), (74.02257522480943, 94.56829097568817), (262.74958003475064, -21.877457670697325)]",1,radial,121.36,982.61,12.44,17.06,0.055,3,,,,,0,0,0,0,,,,,0,15,15,50,,,,,,,,,,,,,,,space,0.9370602001436055,,,,,70,,,,,,,,,,,,,,,,,,,,,,,,,,,1617.6086794999428,None,,,,,,,,,18,21,Female,2021_Dec_16_1202,uniform_mix,2021.2.3,59.674986126120054,
c6_black_ref.xlsx,c6_black_t.xlsx,c6_black.xlsx,stims/black267.png,,267,1354,0.6,54,"[(290.0, -30.0), (-30.0, 110.0), (230.0, 60.0), (-50.0, -190.0), (60.0, 100.0), (-180.0, -20.0), (-230.0, 200.0), (40.0, -160.0), (-220.0, -110.0), (40.0, 200.0), (-110.0, -60.0), (120.0, 80.0), (-100.0, 190.0), (-100.0, 10.0), (-80.0, 70.0), (250.0, -170.0), (-20.0, -120.0), (-150.0, 60.0), (-90.0, -130.0), (80.0, -100.0), (140.0, -190.0), (110.0, 10.0), (-300.0, -10.0), (90.0, -50.0), (200.0, 220.0), (-200.0, -210.0), (160.0, -60.0), (293.74109948817926, -73.03056690228902), (-19.28648709703552, 123.1801680899465), (240.17059685909507, 11.79268451359843), (-81.78894435365433, -191.96865040438476), (72.7340064298585, 86.14990973397757), (-183.19935532074555, 5.96810386687639), (-212.12385728483716, 228.54361155700803), (12.133951328767182, -157.7091275785098), (-247.36162840479776, -91.40399568033939), (79.58509644446514, 198.0131100919553), (-124.57632661719121, -44.78282913337006), (138.40850893194786, 60.428491398843164), (-74.74544488003195, 198.86504643940316), (-96.08982312533777, -8.09813973752641), (-91.24136120393125, 50.44041146044708), (288.1233809568799, -130.00301478411333), (-1.3753081181828009, -126.53787188476974), (-166.26082643686235, 43.78890237892645), (-65.670168496099, -144.3109622690507), (88.36816100293987, -80.65030455061671), (168.66056573505477, -177.1231011513408), (103.63183650204653, 23.989836489524905), (-305.96983767299895, -75.80539545883869), (102.11434917650597, -37.138272298156494), (180.86803728381201, 260.61847156861245), (-162.08745807187864, -213.76773664092374), (173.92499548749254, -39.33122641673353)]","[(290.0, -30.0), (-30.0, 110.0), (230.0, 60.0), (-50.0, -190.0), (60.0, 100.0), (-180.0, -20.0), (-230.0, 200.0), (40.0, -160.0), (-220.0, -110.0), (40.0, 200.0), (-110.0, -60.0), (120.0, 80.0), (-100.0, 190.0), (-100.0, 10.0), (-80.0, 70.0), (250.0, -170.0), (-20.0, -120.0), (-150.0, 60.0), (-90.0, -130.0), (80.0, -100.0), (140.0, -190.0), (110.0, 10.0), (-300.0, -10.0), (90.0, -50.0), (200.0, 220.0), (-200.0, -210.0), (160.0, -60.0)]","[(293.74109948817926, -73.03056690228902), (-19.28648709703552, 123.1801680899465), (240.17059685909507, 11.79268451359843), (-81.78894435365433, -191.96865040438476), (72.7340064298585, 86.14990973397757), (-183.19935532074555, 5.96810386687639), (-212.12385728483716, 228.54361155700803), (12.133951328767182, -157.7091275785098), (-247.36162840479776, -91.40399568033939), (79.58509644446514, 198.0131100919553), (-124.57632661719121, -44.78282913337006), (138.40850893194786, 60.428491398843164), (-74.74544488003195, 198.86504643940316), (-96.08982312533777, -8.09813973752641), (-91.24136120393125, 50.44041146044708), (288.1233809568799, -130.00301478411333), (-1.3753081181828009, -126.53787188476974), (-166.26082643686235, 43.78890237892645), (-65.670168496099, -144.3109622690507), (88.36816100293987, -80.65030455061671), (168.66056573505477, -177.1231011513408), (103.63183650204653, 23.989836489524905), (-305.96983767299895, -75.80539545883869), (102.11434917650597, -37.138272298156494), (180.86803728381201, 260.61847156861245), (-162.08745807187864, -213.76773664092374), (173.92499548749254, -39.33122641673353)]",1,tangential,118.17,983.17,12.57,17.3,0.0549,3,,,,,0,0,0,0,,,,,0,16,16,122,,,,,,,,,,,,,,,space,0.7824876001104712,,,,,60,,,,,,,,,,,,,,,,,,,,,,,,,,,1621.8370028999634,None,,,,,,,,,18,21,Female,2021_Dec_16_1202,uniform_mix,2021.2.3,59.674986126120054,
c6_black_ref.xlsx,c6_black_t.xlsx,c6_black.xlsx,stims/black274.png,,274,2758,0.6,58,"[(150.0, -70.0), (150.0, -160.0), (80.0, -100.0), (-160.0, -10.0), (200.0, 60.0), (-80.0, -70.0), (-20.0, 100.0), (10.0, -120.0), (50.0, 110.0), (-60.0, 180.0), (-90.0, -210.0), (-100.0, 110.0), (-30.0, -100.0), (280.0, -30.0), (-100.0, 50.0), (130.0, -10.0), (-220.0, -120.0), (50.0, -220.0), (300.0, -160.0), (20.0, 170.0), (-100.0, -20.0), (-80.0, -130.0), (-290.0, -40.0), (120.0, 70.0), (-300.0, -220.0), (130.0, 210.0), (300.0, 130.0), (-210.0, 200.0), (-250.0, 80.0), (128.59845659119145, -87.3992243263192), (128.29796849815878, -195.22836862515186), (65.95289626101635, -110.46841042688466), (-155.46312306282638, 13.62492447495228), (214.83780909732644, 32.568858568774715), (-90.73435920066851, -49.660015375017466), (0.8328926734018438, 104.33664708714737), (-16.429659580741117, -116.95104058454889), (69.37738792755634, 100.11597563561273), (-15.924633526178724, 193.0765982967079), (-131.60685617688165, -182.4306296456791), (-86.02863400282328, 128.99886778718513), (-53.72082602020514, -92.82277605726897), (282.4998417523004, -63.06348538786739), (-99.31284373066589, 32.251911567575675), (142.13538012393735, 3.851263461530664), (-201.43969512170034, -158.12205283483638), (93.83936417791173, -199.79578354691205), (327.9097182821003, -100.47572756488245), (-13.276932544344675, 169.4226009511468), (-100.57441907835792, -34.83371032877024), (-50.929320869861755, -146.83891312195405), (-273.8785211301525, -109.2173161499293), (115.18320262041587, 96.20901410476571), (-286.72583279087144, -258.0604778683951), (91.5022959073853, 217.61356476385112), (294.25551044219793, 171.84696488340745), (-234.1225181490515, 162.74028965866228), (-280.3658492037263, 56.06063701560919)]","[(150.0, -70.0), (150.0, -160.0), (80.0, -100.0), (-160.0, -10.0), (200.0, 60.0), (-80.0, -70.0), (-20.0, 100.0), (10.0, -120.0), (50.0, 110.0), (-60.0, 180.0), (-90.0, -210.0), (-100.0, 110.0), (-30.0, -100.0), (280.0, -30.0), (-100.0, 50.0), (130.0, -10.0), (-220.0, -120.0), (50.0, -220.0), (300.0, -160.0), (20.0, 170.0), (-100.0, -20.0), (-80.0, -130.0), (-290.0, -40.0), (120.0, 70.0), (-300.0, -220.0), (130.0, 210.0), (300.0, 130.0), (-210.0, 200.0), (-250.0, 80.0)]","[(128.59845659119145, -87.3992243263192), (128.29796849815878, -195.22836862515186), (65.95289626101635, -110.46841042688466), (-155.46312306282638, 13.62492447495228), (214.83780909732644, 32.568858568774715), (-90.73435920066851, -49.660015375017466), (0.8328926734018438, 104.33664708714737), (-16.429659580741117, -116.95104058454889), (69.37738792755634, 100.11597563561273), (-15.924633526178724, 193.0765982967079), (-131.60685617688165, -182.4306296456791), (-86.02863400282328, 128.99886778718513), (-53.72082602020514, -92.82277605726897), (282.4998417523004, -63.06348538786739), (-99.31284373066589, 32.251911567575675), (142.13538012393735, 3.851263461530664), (-201.43969512170034, -158.12205283483638), (93.83936417791173, -199.79578354691205), (327.9097182821003, -100.47572756488245), (-13.276932544344675, 169.4226009511468), (-100.57441907835792, -34.83371032877024), (-50.929320869861755, -146.83891312195405), (-273.8785211301525, -109.2173161499293), (115.18320262041587, 96.20901410476571), (-286.72583279087144, -258.0604778683951), (91.5022959073853, 217.61356476385112), (294.25551044219793, 171.84696488340745), (-234.1225181490515, 162.74028965866228), (-280.3658492037263, 56.06063701560919)]",1,tangential,125.9,1057.2,12.96,17.91,0.0549,2,,,,,0,0,0,0,,,,,0,17,17,129,,,,,,,,,,,,,,,space,0.8119374001398683,,,,,65,,,,,,,,,,,,,,,,,,,,,,,,,,,1624.9193969001062,None,,,,,,,,,18,21,Female,2021_Dec_16_1202,uniform_mix,2021.2.3,59.674986126120054,
c6_black_ref.xlsx,c6_black_t.xlsx,c6_black.xlsx,stims/black238.png,,238,2588,0.6,64,"[(-60.0, 80.0), (70.0, 80.0), (100.0, -30.0), (40.0, -130.0), (-100.0, 60.0), (70.0, -90.0), (150.0, -70.0), (-100.0, 10.0), (-40.0, 140.0), (-100.0, -40.0), (110.0, 150.0), (170.0, 70.0), (300.0, -80.0), (-110.0, 130.0), (-160.0, 60.0), (-10.0, -100.0), (-290.0, -190.0), (-300.0, -30.0), (-100.0, 220.0), (-60.0, -80.0), (300.0, 100.0), (120.0, -200.0), (30.0, 200.0), (-230.0, 130.0), (-160.0, -20.0), (10.0, 120.0), (210.0, 170.0), (110.0, 30.0), (-50.0, -180.0), (300.0, -220.0), (230.0, 10.0), (-150.0, -130.0), (-178.60728462829013, -118.32796401808639), (-129.313530843707, -158.4314493677684), (294.4302221522506, -272.36142820624406), (333.55976398276016, -185.34690217738847), (-65.71023413364819, -167.24590421934448), (-30.791401487237636, -201.22581406202437), (87.50827869241252, -235.34491156618526), (141.63758226556442, -182.15946707421284), (242.4112966436012, -14.372405723673921), (229.13933519733916, 43.89715393980191), (-70.93795395162049, -77.54183234646477), (-44.97544478752346, -93.98180267048704), (325.1928839262779, 38.97606656544917), (280.87078912752395, 162.20326815262547), (-84.48307486372053, 244.75955702001187), (-137.8275150659831, 208.45585761249643), (77.36810668210958, 193.65177602655643), (-5.347177493505512, 201.8247202738365), (-159.40444902517945, 13.154142465064552), (-158.91641520043748, -54.90411761211213), (-195.50351416075765, 150.40669345731646), (-249.95966264595907, 104.4198139621389), (35.28827816036916, 122.54518760558045), (-7.857107431200504, 126.96850823658987), (122.05026573646394, 16.117758589309744), (109.14008435875935, 54.69832834636486), (250.88970663064936, 133.8248952162772), (189.44258417432889, 188.5728974193505), (-332.9169877611289, -122.59633322777788), (-257.686573761628, -222.54100628011452), (-320.37769138256374, 18.444956638123983), (-295.90985134191453, -95.67622629449696)]","[(-60.0, 80.0), (70.0, 80.0), (100.0, -30.0), (40.0, -130.0), (-100.0, 60.0), (70.0, -90.0), (150.0, -70.0), (-100.0, 10.0), (-40.0, 140.0), (-100.0, -40.0), (110.0, 150.0), (170.0, 70.0), (300.0, -80.0), (-110.0, 130.0), (-160.0, 60.0), (-10.0, -100.0), (-290.0, -190.0), (-300.0, -30.0), (-100.0, 220.0), (-60.0, -80.0), (300.0, 100.0), (120.0, -200.0), (30.0, 200.0), (-230.0, 130.0), (-160.0, -20.0), (10.0, 120.0), (210.0, 170.0), (110.0, 30.0), (-50.0, -180.0), (300.0, -220.0), (230.0, 10.0), (-150.0, -130.0)]","[(-178.60728462829013, -118.32796401808639), (-129.313530843707, -158.4314493677684), (294.4302221522506, -272.36142820624406), (333.55976398276016, -185.34690217738847), (-65.71023413364819, -167.24590421934448), (-30.791401487237636, -201.22581406202437), (87.50827869241252, -235.34491156618526), (141.63758226556442, -182.15946707421284), (242.4112966436012, -14.372405723673921), (229.13933519733916, 43.89715393980191), (-70.93795395162049, -77.54183234646477), (-44.97544478752346, -93.98180267048704), (325.1928839262779, 38.97606656544917), (280.87078912752395, 162.20326815262547), (-84.48307486372053, 244.75955702001187), (-137.8275150659831, 208.45585761249643), (77.36810668210958, 193.65177602655643), (-5.347177493505512, 201.8247202738365), (-159.40444902517945, 13.154142465064552), (-158.91641520043748, -54.90411761211213), (-195.50351416075765, 150.40669345731646), (-249.95966264595907, 104.4198139621389), (35.28827816036916, 122.54518760558045), (-7.857107431200504, 126.96850823658987), (122.05026573646394, 16.117758589309744), (109.14008435875935, 54.69832834636486), (250.88970663064936, 133.8248952162772), (189.44258417432889, 188.5728974193505), (-332.9169877611289, -122.59633322777788), (-257.686573761628, -222.54100628011452), (-320.37769138256374, 18.444956638123983), (-295.90985134191453, -95.67622629449696)]",0,tangential,129.35,1164.66,13.83,19.09,0.055,2,,,,,0,0,0,0,,,,,0,18,18,93,,,,,,,,,,,,,,,space,0.5686878003180027,,,,,80,,,,,,,,,,,,,,,,,,,,,,,,,,,1627.7002252000384,None,,,,,,,,,18,21,Female,2021_Dec_16_1202,uniform_mix,2021.2.3,59.674986126120054,
c6_black_ref.xlsx,c6_black_t.xlsx,c6_black.xlsx,stims/black203.png,,203,4681,0.6,58,"[(-300.0, 90.0), (-210.0, 20.0), (290.0, -220.0), (220.0, -120.0), (150.0, -30.0), (200.0, 30.0), (30.0, 160.0), (-90.0, 60.0), (130.0, -140.0), (0.0, -100.0), (-210.0, -190.0), (110.0, 20.0), (30.0, 100.0), (-50.0, -100.0), (190.0, 170.0), (-220.0, -80.0), (110.0, 100.0), (-100.0, 160.0), (-130.0, 30.0), (-50.0, 110.0), (290.0, -40.0), (-130.0, -90.0), (300.0, 100.0), (-80.0, -170.0), (-40.0, 220.0), (-190.0, 130.0), (-110.0, -20.0), (70.0, -80.0), (30.0, -170.0), (-244.30244137758083, 73.14813696278192), (-175.69756925461672, 2.160075264913784), (248.56641230265728, -179.1128138557526), (184.70364556498754, -103.44993690294157), (126.0458843226013, -19.283109823358075), (180.25501774267315, 10.081417068206564), (16.267487939039192, 127.85241283432109), (-76.9719032833828, 55.991034895040684), (103.4233622169122, -134.6194638834225), (-2.9497683021617638, -79.277632841505), (-167.44181432112498, -165.998402984834), (96.86029515862805, 26.50983328843663), (20.904498724860993, 82.63857713149581), (-46.435043431535945, -84.21069588251069), (229.91670308390346, 205.58415271667002), (-249.82321611025213, -84.86487362431242), (116.22777122028985, 118.0149583136554), (-109.73187673879013, 192.2668677314954), (-154.53208578065556, 35.05965362559228), (-64.69693886042197, 122.86829490366733), (345.745940736659, -37.66248510314918), (-152.23669126066326, -112.97123445451106), (368.88475157496373, 116.8102479456394), (-102.58655066632298, -197.8841110750508), (-36.101012589088086, 263.4593237419311), (-201.30785000532433, 158.84598862674108), (-129.8584711796174, -24.3379994737238), (81.81941153954035, -88.43602045865727), (36.33057621024801, -195.3347192122908)]","[(-300.0, 90.0), (-210.0, 20.0), (290.0, -220.0), (220.0, -120.0), (150.0, -30.0), (200.0, 30.0), (30.0, 160.0), (-90.0, 60.0), (130.0, -140.0), (0.0, -100.0), (-210.0, -190.0), (110.0, 20.0), (30.0, 100.0), (-50.0, -100.0), (190.0, 170.0), (-220.0, -80.0), (110.0, 100.0), (-100.0, 160.0), (-130.0, 30.0), (-50.0, 110.0), (290.0, -40.0), (-130.0, -90.0), (300.0, 100.0), (-80.0, -170.0), (-40.0, 220.0), (-190.0, 130.0), (-110.0, -20.0), (70.0, -80.0), (30.0, -170.0)]","[(-244.30244137758083, 73.14813696278192), (-175.69756925461672, 2.160075264913784), (248.56641230265728, -179.1128138557526), (184.70364556498754, -103.44993690294157), (126.0458843226013, -19.283109823358075), (180.25501774267315, 10.081417068206564), (16.267487939039192, 127.85241283432109), (-76.9719032833828, 55.991034895040684), (103.4233622169122, -134.6194638834225), (-2.9497683021617638, -79.277632841505), (-167.44181432112498, -165.998402984834), (96.86029515862805, 26.50983328843663), (20.904498724860993, 82.63857713149581), (-46.435043431535945, -84.21069588251069), (229.91670308390346, 205.58415271667002), (-249.82321611025213, -84.86487362431242), (116.22777122028985, 118.0149583136554), (-109.73187673879013, 192.2668677314954), (-154.53208578065556, 35.05965362559228), (-64.69693886042197, 122.86829490366733), (345.745940736659, -37.66248510314918), (-152.23669126066326, -112.97123445451106), (368.88475157496373, 116.8102479456394), (-102.58655066632298, -197.8841110750508), (-36.101012589088086, 263.4593237419311), (-201.30785000532433, 158.84598862674108), (-129.8584711796174, -24.3379994737238), (81.81941153954035, -88.43602045865727), (36.33057621024801, -195.3347192122908)]",1,radial,124.03,1055.44,12.61,17.41,0.055,3,,,,,0,0,0,0,,,,,0,19,19,58,,,,,,,,,,,,,,,space,0.5976423998363316,,,,,75,,,,,,,,,,,,,,,,,,,,,,,,,,,1630.2072397000156,None,,,,,,,,,18,21,Female,2021_Dec_16_1202,uniform_mix,2021.2.3,59.674986126120054,
c6_black_ref.xlsx,c6_black_t.xlsx,c6_black.xlsx,stims/black218.png,,218,3836,0.6,54,"[(160.0, 150.0), (-220.0, -190.0), (160.0, 60.0), (-50.0, -90.0), (300.0, -190.0), (110.0, -150.0), (230.0, -70.0), (0.0, 110.0), (90.0, 80.0), (20.0, 210.0), (270.0, 140.0), (120.0, -50.0), (110.0, 10.0), (-90.0, -170.0), (-110.0, -20.0), (-300.0, 70.0), (-120.0, -90.0), (-210.0, 210.0), (-60.0, 80.0), (-230.0, -70.0), (-120.0, 70.0), (50.0, -220.0), (-70.0, 140.0), (70.0, 150.0), (-180.0, 20.0), (50.0, -90.0), (-10.0, -120.0), (-61.355140760495374, -169.57708652830024), (-57.91520126630866, 92.91963611277232), (-74.44042489999639, 69.50818315715534), (-297.4990405310801, 133.70946663937426), (-329.95791221593106, 39.634934189364856), (-112.89189105917043, -0.3562897611558924), (-103.50776930642188, -41.779200566845745), (20.548926654770867, -212.37698068824108), (71.11237733791933, -195.65446514473064), (96.51739246611095, 144.45251783110865), (47.299803974934434, 162.82424487100707), (-177.93974714970915, 63.57238491593287), (-191.9960846596864, -0.10638238018748325), (-109.34115345738746, 94.66084210356169), (-127.48604651045584, 57.29953219653926), (-164.62003289469956, 260.64309096698474), (-255.35612142194327, 194.9661657497218), (-24.91596093580671, -121.028811945354), (6.182728152275729, -120.14488790401684), (-50.32652975461781, 151.01528272145254), (-90.56812705647667, 124.45686306714634), (-230.6015841836647, -37.62370911545281), (-211.15459903557675, -112.8194303704118), (-141.09167190586737, -70.36011150368297), (-107.2691870836406, -115.57308847935448), (39.21923862607804, -102.1890133486188), (64.5461069164417, -90.70363009855225)]","[(160.0, 150.0), (-220.0, -190.0), (160.0, 60.0), (-50.0, -90.0), (300.0, -190.0), (110.0, -150.0), (230.0, -70.0), (0.0, 110.0), (90.0, 80.0), (20.0, 210.0), (270.0, 140.0), (120.0, -50.0), (110.0, 10.0), (-90.0, -170.0), (-110.0, -20.0), (-300.0, 70.0), (-120.0, -90.0), (-210.0, 210.0), (-60.0, 80.0), (-230.0, -70.0), (-120.0, 70.0), (50.0, -220.0), (-70.0, 140.0), (70.0, 150.0), (-180.0, 20.0), (50.0, -90.0), (-10.0, -120.0)]","[(-61.355140760495374, -169.57708652830024), (-57.91520126630866, 92.91963611277232), (-74.44042489999639, 69.50818315715534), (-297.4990405310801, 133.70946663937426), (-329.95791221593106, 39.634934189364856), (-112.89189105917043, -0.3562897611558924), (-103.50776930642188, -41.779200566845745), (20.548926654770867, -212.37698068824108), (71.11237733791933, -195.65446514473064), (96.51739246611095, 144.45251783110865), (47.299803974934434, 162.82424487100707), (-177.93974714970915, 63.57238491593287), (-191.9960846596864, -0.10638238018748325), (-109.34115345738746, 94.66084210356169), (-127.48604651045584, 57.29953219653926), (-164.62003289469956, 260.64309096698474), (-255.35612142194327, 194.9661657497218), (-24.91596093580671, -121.028811945354), (6.182728152275729, -120.14488790401684), (-50.32652975461781, 151.01528272145254), (-90.56812705647667, 124.45686306714634), (-230.6015841836647, -37.62370911545281), (-211.15459903557675, -112.8194303704118), (-141.09167190586737, -70.36011150368297), (-107.2691870836406, -115.57308847935448), (39.21923862607804, -102.1890133486188), (64.5461069164417, -90.70363009855225)]",0,tangential,120.83,992.47,12.05,16.06,0.0544,2,,,,,0,0,0,0,,,,,0,20,20,73,,,,,,,,,,,,,,,space,0.5581098003312945,,,,,80,,,,,,,,,,,,,,,,,,,,,,,,,,,1633.0148634002544,None,,,,,,,,,18,21,Female,2021_Dec_16_1202,uniform_mix,2021.2.3,59.674986126120054,
c6_black_ref.xlsx,c6_black_t.xlsx,c6_black.xlsx,stims/black181.png,,181,875,0.6,60,"[(110.0, -90.0), (-100.0, -130.0), (-60.0, 100.0), (240.0, -20.0), (260.0, 90.0), (50.0, 180.0), (260.0, 210.0), (-80.0, -70.0), (-60.0, -190.0), (-190.0, -160.0), (80.0, -200.0), (-10.0, -120.0), (140.0, 130.0), (-190.0, 30.0), (-300.0, 220.0), (210.0, -170.0), (-160.0, -40.0), (110.0, 0.0), (80.0, 60.0), (140.0, 60.0), (-300.0, -80.0), (160.0, -50.0), (0.0, 110.0), (30.0, -100.0), (-100.0, 0.0), (-120.0, 170.0), (-200.0, 120.0), (60.0, 110.0), (-100.0, 50.0), (-20.0, 220.0), (-13.869627741666104, -102.10438591018374), (111.9411924949154, 54.92011578852891), (125.04440828180877, -32.361407220918714), (-104.05876352105082, 129.60663545809828), (19.454627619785096, -92.12160093578208), (64.89964830896497, 58.922192193601504), (-249.92749322719354, 158.5545078616273), (-66.98862656009777, -57.8875221610169), (63.10048607271105, 133.00968861435567), (-228.89844286014122, 126.38280625028655), (1.9917185870069698, 127.73553373359475), (-110.63600263542806, -6.7641374638812195), (252.96542188410217, -213.34108333020424), (-216.94477190153725, 29.848846290698212), (-5.460948415154718, 251.78511293503672), (100.20467711628584, -244.80900824558918), (-153.08171098542078, -154.84779244696338), (-224.95407569132482, -193.4880956885348), (-130.1922794660089, -45.04925053320111), (-192.2014818675314, -47.640469347065846), (93.70121610818232, -2.084554321400242), (122.19329583129952, -1.9030948643541876), (-40.59505674905381, -170.60282158206405), (-80.1356469357662, -216.11832116155801), (-88.3547200635748, 45.501913826408625), (-114.38860236273456, 49.17484523984211), (-254.909094020356, -72.49485861491516), (-332.73702674054664, -89.83133029737024), (114.26462866418396, 123.48187033066698), (155.02417888393475, 155.19852704831322)]","[(110.0, -90.0), (-100.0, -130.0), (-60.0, 100.0), (240.0, -20.0), (260.0, 90.0), (50.0, 180.0), (260.0, 210.0), (-80.0, -70.0), (-60.0, -190.0), (-190.0, -160.0), (80.0, -200.0), (-10.0, -120.0), (140.0, 130.0), (-190.0, 30.0), (-300.0, 220.0), (210.0, -170.0), (-160.0, -40.0), (110.0, 0.0), (80.0, 60.0), (140.0, 60.0), (-300.0, -80.0), (160.0, -50.0), (0.0, 110.0), (30.0, -100.0), (-100.0, 0.0), (-120.0, 170.0), (-200.0, 120.0), (60.0, 110.0), (-100.0, 50.0), (-20.0, 220.0)]","[(-13.869627741666104, -102.10438591018374), (111.9411924949154, 54.92011578852891), (125.04440828180877, -32.361407220918714), (-104.05876352105082, 129.60663545809828), (19.454627619785096, -92.12160093578208), (64.89964830896497, 58.922192193601504), (-249.92749322719354, 158.5545078616273), (-66.98862656009777, -57.8875221610169), (63.10048607271105, 133.00968861435567), (-228.89844286014122, 126.38280625028655), (1.9917185870069698, 127.73553373359475), (-110.63600263542806, -6.7641374638812195), (252.96542188410217, -213.34108333020424), (-216.94477190153725, 29.848846290698212), (-5.460948415154718, 251.78511293503672), (100.20467711628584, -244.80900824558918), (-153.08171098542078, -154.84779244696338), (-224.95407569132482, -193.4880956885348), (-130.1922794660089, -45.04925053320111), (-192.2014818675314, -47.640469347065846), (93.70121610818232, -2.084554321400242), (122.19329583129952, -1.9030948643541876), (-40.59505674905381, -170.60282158206405), (-80.1356469357662, -216.11832116155801), (-88.3547200635748, 45.501913826408625), (-114.38860236273456, 49.17484523984211), (-254.909094020356, -72.49485861491516), (-332.73702674054664, -89.83133029737024), (114.26462866418396, 123.48187033066698), (155.02417888393475, 155.19852704831322)]",0.5,radial,126.61,1091.57,12.1,16.65,0.055,1,,,,,0,0,0,0,,,,,0,21,21,36,,,,,,,,,,,,,,,space,0.5362716000527143,,,,,70,,,,,,,,,,,,,,,,,,,,,,,,,,,1635.6785133001395,None,,,,,,,,,18,21,Female,2021_Dec_16_1202,uniform_mix,2021.2.3,59.674986126120054,
c6_black_ref.xlsx,c6_black_t.xlsx,c6_black.xlsx,stims/black196.png,,196,1088,0.6,54,"[(240.0, 30.0), (-130.0, 0.0), (160.0, 80.0), (0.0, 140.0), (70.0, 220.0), (-100.0, -210.0), (-130.0, -120.0), (-210.0, 210.0), (-70.0, -100.0), (60.0, 80.0), (100.0, 140.0), (140.0, -200.0), (70.0, -100.0), (-160.0, 120.0), (-10.0, -190.0), (-90.0, 50.0), (100.0, -20.0), (-220.0, -130.0), (120.0, 30.0), (-100.0, -50.0), (240.0, -160.0), (-260.0, 0.0), (-80.0, 190.0), (-70.0, 100.0), (140.0, -50.0), (270.0, 150.0), (20.0, -100.0), (214.08540035330876, 43.379740014311494), (-104.440920494177, 0.35254591925375145), (142.37770095106725, 56.344868848073645), (-8.449433534689224, 113.88047841257772), (48.711038885227914, 183.1890754541167), (-71.61070420082297, -181.433752393054), (-122.28689662606438, -99.76745123749501), (-160.4283709043117, 174.19944882192377), (-53.38864882736081, -81.02046629853257), (45.485472728464444, 72.67669687643505), (84.49887577832276, 114.41190415156073), (114.37746266017251, -148.38111961462354), (65.96567507372667, -79.00882712318898), (-176.80288391186681, 137.36580473062162), (-12.964781654980698, -213.59465883517652), (-109.34758296900785, 63.079979291513574), (111.98108914453232, -19.43587058295254), (-257.9729944739853, -167.58691331548715), (143.57802024931868, 32.35787602011892), (-122.60648956273397, -54.337295726785825), (278.7620799760859, -177.42246852876258), (-311.17249506484325, 13.892953316928992), (-99.00537014600937, 208.02383067231642), (-85.50181314130137, 124.52725028576057), (164.547211545236, -65.76486141032787), (302.09283168218394, 179.160533114498), (23.09249841696811, -123.227208564985)]","[(240.0, 30.0), (-130.0, 0.0), (160.0, 80.0), (0.0, 140.0), (70.0, 220.0), (-100.0, -210.0), (-130.0, -120.0), (-210.0, 210.0), (-70.0, -100.0), (60.0, 80.0), (100.0, 140.0), (140.0, -200.0), (70.0, -100.0), (-160.0, 120.0), (-10.0, -190.0), (-90.0, 50.0), (100.0, -20.0), (-220.0, -130.0), (120.0, 30.0), (-100.0, -50.0), (240.0, -160.0), (-260.0, 0.0), (-80.0, 190.0), (-70.0, 100.0), (140.0, -50.0), (270.0, 150.0), (20.0, -100.0)]","[(214.08540035330876, 43.379740014311494), (-104.440920494177, 0.35254591925375145), (142.37770095106725, 56.344868848073645), (-8.449433534689224, 113.88047841257772), (48.711038885227914, 183.1890754541167), (-71.61070420082297, -181.433752393054), (-122.28689662606438, -99.76745123749501), (-160.4283709043117, 174.19944882192377), (-53.38864882736081, -81.02046629853257), (45.485472728464444, 72.67669687643505), (84.49887577832276, 114.41190415156073), (114.37746266017251, -148.38111961462354), (65.96567507372667, -79.00882712318898), (-176.80288391186681, 137.36580473062162), (-12.964781654980698, -213.59465883517652), (-109.34758296900785, 63.079979291513574), (111.98108914453232, -19.43587058295254), (-257.9729944739853, -167.58691331548715), (143.57802024931868, 32.35787602011892), (-122.60648956273397, -54.337295726785825), (278.7620799760859, -177.42246852876258), (-311.17249506484325, 13.892953316928992), (-99.00537014600937, 208.02383067231642), (-85.50181314130137, 124.52725028576057), (164.547211545236, -65.76486141032787), (302.09283168218394, 179.160533114498), (23.09249841696811, -123.227208564985)]",1,radial,119.62,976.5,11.92,16.45,0.0553,4,,,,,0,0,0,0,,,,,0,22,22,51,,,,,,,,,,,,,,,space,0.5710650999099016,,,,,50,,,,,,,,,,,,,,,,,,,,,,,,,,,1638.2149144001305,None,,,,,,,,,18,21,Female,2021_Dec_16_1202,uniform_mix,2021.2.3,59.674986126120054,
c6_black_ref.xlsx,c6_black_t.xlsx,c6_black.xlsx,stims/black150.png,,150,2433,0.6,56,"[(-110.0, 60.0), (-190.0, 50.0), (-70.0, -100.0), (-240.0, -30.0), (60.0, -90.0), (280.0, -140.0), (100.0, 30.0), (90.0, 150.0), (0.0, 220.0), (-70.0, 150.0), (40.0, -180.0), (-120.0, -60.0), (10.0, -100.0), (120.0, -190.0), (-250.0, -130.0), (40.0, 110.0), (-70.0, 80.0), (-10.0, 130.0), (-150.0, 220.0), (130.0, 80.0), (220.0, 150.0), (120.0, -90.0), (-290.0, 210.0), (230.0, 0.0), (100.0, -20.0), (-100.0, 0.0), (-160.0, -180.0), (-50.0, -200.0), (-234.57313065789774, 169.1368495706229), (-341.66250971171854, 228.99780655055548), (-131.1595722516629, -156.67751612006532), (-183.12645686474076, -211.08150822085832), (-199.7971431251891, -90.37103196847787), (-269.03266685065705, -167.2026101009411), (207.21081952397338, 113.58621688863845), (242.47079129783864, 181.2619613415507), (-15.597526598577598, 115.77035408249701), (-8.307440886855238, 158.8502504410502), (111.84808197939775, 67.7644112574402), (152.0110136083419, 85.25647008504903), (-64.2317444569976, 69.1013535262191), (-78.27725634173936, 91.66552161788276), (40.275281126850295, 89.623658785869), (34.739749835386505, 124.31211136113669), (101.53016831229745, -70.87981460628394), (126.441037146184, -106.0748862984288), (-75.38257616005055, 1.1790394335392023), (-118.11165773787937, -2.2478753280188286), (82.92337304835074, -20.91589762410007), (121.15884839211296, -23.470642673798856), (-42.83805497178054, -178.97026995310387), (-64.71399314338599, -244.52967737392962), (186.3819103452594, 0.44992296801085985), (252.01275154668863, -19.099516620480927), (-151.5281750318241, 185.43188442566972), (-174.47072327556322, 247.44361267620343)]","[(-110.0, 60.0), (-190.0, 50.0), (-70.0, -100.0), (-240.0, -30.0), (60.0, -90.0), (280.0, -140.0), (100.0, 30.0), (90.0, 150.0), (0.0, 220.0), (-70.0, 150.0), (40.0, -180.0), (-120.0, -60.0), (10.0, -100.0), (120.0, -190.0), (-250.0, -130.0), (40.0, 110.0), (-70.0, 80.0), (-10.0, 130.0), (-150.0, 220.0), (130.0, 80.0), (220.0, 150.0), (120.0, -90.0), (-290.0, 210.0), (230.0, 0.0), (100.0, -20.0), (-100.0, 0.0), (-160.0, -180.0), (-50.0, -200.0)]","[(-234.57313065789774, 169.1368495706229), (-341.66250971171854, 228.99780655055548), (-131.1595722516629, -156.67751612006532), (-183.12645686474076, -211.08150822085832), (-199.7971431251891, -90.37103196847787), (-269.03266685065705, -167.2026101009411), (207.21081952397338, 113.58621688863845), (242.47079129783864, 181.2619613415507), (-15.597526598577598, 115.77035408249701), (-8.307440886855238, 158.8502504410502), (111.84808197939775, 67.7644112574402), (152.0110136083419, 85.25647008504903), (-64.2317444569976, 69.1013535262191), (-78.27725634173936, 91.66552161788276), (40.275281126850295, 89.623658785869), (34.739749835386505, 124.31211136113669), (101.53016831229745, -70.87981460628394), (126.441037146184, -106.0748862984288), (-75.38257616005055, 1.1790394335392023), (-118.11165773787937, -2.2478753280188286), (82.92337304835074, -20.91589762410007), (121.15884839211296, -23.470642673798856), (-42.83805497178054, -178.97026995310387), (-64.71399314338599, -244.52967737392962), (186.3819103452594, 0.44992296801085985), (252.01275154668863, -19.099516620480927), (-151.5281750318241, 185.43188442566972), (-174.47072327556322, 247.44361267620343)]",0,radial,124.11,1017.39,12.29,16.99,0.055,2,,,,,0,0,0,0,,,,,0,23,23,5,,,,,,,,,,,,,,,space,0.5889371000230312,,,,,50,,,,,,,,,,,,,,,,,,,,,,,,,,,1641.4272675001994,None,,,,,,,,,18,21,Female,2021_Dec_16_1202,uniform_mix,2021.2.3,59.674986126120054,
c6_black_ref.xlsx,c6_black_t.xlsx,c6_black.xlsx,stims/black212.png,,212,1684,0.6,62,"[(-90.0, 140.0), (120.0, 150.0), (-130.0, 80.0), (10.0, 220.0), (90.0, 80.0), (110.0, -50.0), (-200.0, 160.0), (240.0, -220.0), (-170.0, -200.0), (-50.0, -90.0), (10.0, -100.0), (70.0, -100.0), (100.0, 30.0), (-20.0, 140.0), (-180.0, -100.0), (-30.0, -150.0), (-100.0, -10.0), (-160.0, 0.0), (-270.0, -40.0), (290.0, -50.0), (40.0, 110.0), (160.0, -20.0), (-210.0, 70.0), (170.0, -120.0), (-70.0, 80.0), (260.0, 80.0), (-100.0, -80.0), (210.0, 210.0), (-300.0, -220.0), (100.0, -210.0), (160.0, 70.0), (-65.71825312096459, 118.27874404084412), (97.7331655063744, 122.58119208412477), (-117.75263566289252, 58.410116087002486), (0.008258168967081758, 174.88519282972032), (70.08088992453743, 74.01494367525302), (100.02119581921131, -34.13183678857461), (-175.28873972716323, 126.75877511147102), (189.53049948445812, -163.40604946954204), (-131.99977744148902, -185.77334621344602), (-39.210270724435404, -82.82894456455544), (5.077247694950342, -85.6066342040534), (54.80348451673994, -84.56165575200987), (82.29051960775189, 23.496372634732243), (-17.663646618231283, 119.7193737740579), (-161.40785741030348, -87.68672159946598), (-33.281410916544644, -178.6760583426548), (-111.85139519060735, -15.4679658817207), (-177.14430675197713, 1.1006942111191744), (-314.99257368330365, -37.372529091092204), (334.0583555329712, -66.96544656711387), (51.30506418362189, 133.0516307813445), (175.97739932672346, -23.80160974239539), (-243.54012321332658, 78.53450293137307), (197.5048970287738, -123.67672939483279), (-76.42833469013281, 98.12209910181237), (308.2193415227163, 88.24634376900244), (-113.05130247235854, -95.11346706261449), (226.69298548913997, 257.58338119088137), (-335.56505945917826, -235.77734501176226), (107.74474997167648, -252.05605399880102), (174.54293093229816, 81.64792554260572)]","[(-90.0, 140.0), (120.0, 150.0), (-130.0, 80.0), (10.0, 220.0), (90.0, 80.0), (110.0, -50.0), (-200.0, 160.0), (240.0, -220.0), (-170.0, -200.0), (-50.0, -90.0), (10.0, -100.0), (70.0, -100.0), (100.0, 30.0), (-20.0, 140.0), (-180.0, -100.0), (-30.0, -150.0), (-100.0, -10.0), (-160.0, 0.0), (-270.0, -40.0), (290.0, -50.0), (40.0, 110.0), (160.0, -20.0), (-210.0, 70.0), (170.0, -120.0), (-70.0, 80.0), (260.0, 80.0), (-100.0, -80.0), (210.0, 210.0), (-300.0, -220.0), (100.0, -210.0), (160.0, 70.0)]","[(-65.71825312096459, 118.27874404084412), (97.7331655063744, 122.58119208412477), (-117.75263566289252, 58.410116087002486), (0.008258168967081758, 174.88519282972032), (70.08088992453743, 74.01494367525302), (100.02119581921131, -34.13183678857461), (-175.28873972716323, 126.75877511147102), (189.53049948445812, -163.40604946954204), (-131.99977744148902, -185.77334621344602), (-39.210270724435404, -82.82894456455544), (5.077247694950342, -85.6066342040534), (54.80348451673994, -84.56165575200987), (82.29051960775189, 23.496372634732243), (-17.663646618231283, 119.7193737740579), (-161.40785741030348, -87.68672159946598), (-33.281410916544644, -178.6760583426548), (-111.85139519060735, -15.4679658817207), (-177.14430675197713, 1.1006942111191744), (-314.99257368330365, -37.372529091092204), (334.0583555329712, -66.96544656711387), (51.30506418362189, 133.0516307813445), (175.97739932672346, -23.80160974239539), (-243.54012321332658, 78.53450293137307), (197.5048970287738, -123.67672939483279), (-76.42833469013281, 98.12209910181237), (308.2193415227163, 88.24634376900244), (-113.05130247235854, -95.11346706261449), (226.69298548913997, 257.58338119088137), (-335.56505945917826, -235.77734501176226), (107.74474997167648, -252.05605399880102), (174.54293093229816, 81.64792554260572)]",1,radial,128.98,1126.87,12.44,17.26,0.055,4,,,,,0,0,0,0,,,,,0,24,24,67,,,,,,,,,,,,,,,space,0.5104310996830463,,,,,60,,,,,,,,,,,,,,,,,,,,,,,,,,,1643.9918121001683,None,,,,,,,,,18,21,Female,2021_Dec_16_1202,uniform_mix,2021.2.3,59.674986126120054,
c6_black_ref.xlsx,c6_black_t.xlsx,c6_black.xlsx,stims/black197.png,,197,1610,0.6,56,"[(100.0, -210.0), (-10.0, 140.0), (70.0, -100.0), (-90.0, 200.0), (-90.0, 60.0), (-300.0, -40.0), (-30.0, -100.0), (-50.0, 110.0), (30.0, 110.0), (130.0, 30.0), (40.0, -150.0), (220.0, 40.0), (210.0, -200.0), (260.0, -60.0), (150.0, -50.0), (90.0, 80.0), (300.0, 120.0), (100.0, -10.0), (-140.0, -10.0), (-200.0, -170.0), (-240.0, 50.0), (-10.0, -220.0), (-70.0, -150.0), (-130.0, -90.0), (170.0, 140.0), (-270.0, 160.0), (-110.0, 120.0), (90.0, 220.0), (107.0484994268426, -180.7193001681863), (2.7409139021125846, 121.87108078196599), (56.66951553495598, -93.48399126639525), (-95.68657766304916, 167.08687432213065), (-70.72233156752438, 55.96500070001098), (-254.293158302029, -55.339804633294875), (-22.831774695021814, -86.04977988327491), (-47.889849671996856, 97.36484851688282), (18.062763968764553, 97.29515960555567), (118.6576922256932, 16.762363674657326), (30.78692908832231, -117.0347547817918), (186.04928212278094, 36.44219997811053), (196.24368296804667, -162.97410256750626), (238.65820988007917, -31.20028161531205), (169.7322147333279, -56.077295061360175), (106.86014596882565, 83.76460621553832), (330.8673222575457, 131.18769898054495), (112.90868308142068, -18.304865043785092), (-155.8801210845552, -17.126060390429515), (-220.78013449801426, -187.72905696628033), (-298.3393672364134, 56.837364886851105), (-19.948791731900137, -247.40342590211498), (-76.70311155154474, -182.4467544832321), (-147.77481391777062, -110.55112982914252), (214.28663601840668, 168.081179025397), (-325.656665695249, 169.74764918530826), (-131.29278290661594, 135.48506135437742), (110.58796238897625, 245.3665154954084)]","[(100.0, -210.0), (-10.0, 140.0), (70.0, -100.0), (-90.0, 200.0), (-90.0, 60.0), (-300.0, -40.0), (-30.0, -100.0), (-50.0, 110.0), (30.0, 110.0), (130.0, 30.0), (40.0, -150.0), (220.0, 40.0), (210.0, -200.0), (260.0, -60.0), (150.0, -50.0), (90.0, 80.0), (300.0, 120.0), (100.0, -10.0), (-140.0, -10.0), (-200.0, -170.0), (-240.0, 50.0), (-10.0, -220.0), (-70.0, -150.0), (-130.0, -90.0), (170.0, 140.0), (-270.0, 160.0), (-110.0, 120.0), (90.0, 220.0)]","[(107.0484994268426, -180.7193001681863), (2.7409139021125846, 121.87108078196599), (56.66951553495598, -93.48399126639525), (-95.68657766304916, 167.08687432213065), (-70.72233156752438, 55.96500070001098), (-254.293158302029, -55.339804633294875), (-22.831774695021814, -86.04977988327491), (-47.889849671996856, 97.36484851688282), (18.062763968764553, 97.29515960555567), (118.6576922256932, 16.762363674657326), (30.78692908832231, -117.0347547817918), (186.04928212278094, 36.44219997811053), (196.24368296804667, -162.97410256750626), (238.65820988007917, -31.20028161531205), (169.7322147333279, -56.077295061360175), (106.86014596882565, 83.76460621553832), (330.8673222575457, 131.18769898054495), (112.90868308142068, -18.304865043785092), (-155.8801210845552, -17.126060390429515), (-220.78013449801426, -187.72905696628033), (-298.3393672364134, 56.837364886851105), (-19.948791731900137, -247.40342590211498), (-76.70311155154474, -182.4467544832321), (-147.77481391777062, -110.55112982914252), (214.28663601840668, 168.081179025397), (-325.656665695249, 169.74764918530826), (-131.29278290661594, 135.48506135437742), (110.58796238897625, 245.3665154954084)]",1,radial,122.16,1022.23,12.66,17.46,0.0548,1,,,,,0,0,0,0,,,,,0,25,25,52,,,,,,,,,,,,,,,space,0.5214966000057757,,,,,60,,,,,,,,,,,,,,,,,,,,,,,,,,,1646.674488400109,None,,,,,,,,,18,21,Female,2021_Dec_16_1202,uniform_mix,2021.2.3,59.674986126120054,
c6_black_ref.xlsx,c6_black_t.xlsx,c6_black.xlsx,stims/blacksub10.png,,10,None,0.6,2,"[(-110.0, -70.0), (-70.0, 80.0)]",None,None,None,None,None,None,None,None,None,None,,,,,0,0,0,0,,,,,0,26,26,144,,,,,,,,,,,,,,,space,0.5570502998307347,,,,,2,,,,,,,,,,,,,,,,,,,,,,,,,,,1649.4020094000734,None,,,,,,,,,18,21,Female,2021_Dec_16_1202,uniform_mix,2021.2.3,59.674986126120054,
