reference,test_blockOrder,blockOrder,imageFile,num,index,n,winsize,numerosity,allposis,centralposis,extraposis,perceptpairs,protectzonetype,convexhull,occupancyarea,averageeccentricity,averagespacing,density,display_i,p_trials.thisRepN,p_trials.thisTrialN,p_trials.thisN,p_trials.thisIndex,blocks.thisRepN,blocks.thisTrialN,blocks.thisN,blocks.thisIndex,trials_2.thisRepN,trials_2.thisTrialN,trials_2.thisN,trials_2.thisIndex,trials.thisRepN,trials.thisTrialN,trials.thisN,trials.thisIndex,key_resp.keys,key_resp.rt,key_resp_14.keys,key_resp_14.rt,key_resp_15.keys,key_resp_15.rt,key_resp_16.keys,key_resp_16.rt,key_resp_17.keys,key_resp_17.rt,key_resp_18.keys,key_resp_18.rt,key_resp_19.keys,key_resp_19.rt,key_resp_26.keys,key_resp_26.rt,p_img.started,p_img.stopped,text_14.started,text_14.stopped,responseN,key_resp_4.keys,key_resp_4.rt,text_20.started,text_20.stopped,key_resp_20.keys,key_resp_20.rt,key_resp_20.started,key_resp_20.stopped,key_resp_22.keys,key_resp_22.rt,key_resp_5.keys,key_resp_5.rt,image_2.started,image_2.stopped,blank.started,blank.stopped,text_21.started,text_21.stopped,key_resp_7.keys,key_resp_7.rt,key_resp_7.started,key_resp_7.stopped,key_resp_8.keys,key_resp_8.rt,key_resp_23.keys,key_resp_23.rt,image.started,image.stopped,text_31.started,text_31.stopped,text_32.started,text_32.stopped,key_resp_2.keys,key_resp_2.rt,thanksm.started,thanksm.stopped,participant,age,sex,date,expName,psychopyVersion,frameRate,
,,,,,,,,,,,,,,,,,,,,,,,,,,,,,,,,,,,,space,22.76595970010385,,,,,,,,,,,,,,,,,,,,,,,,,,,,,,,,,,,,,,,,,,,,,,,,,,,,,,,,2,21,Female,2021_Dec_13_1400,uniform_mix,2021.2.3,59.93762883321603,
,,,,,,,,,,,,,,,,,,,,,,,,,,,,,,,,,,,,,,space,2.897487800102681,,,,,,,,,,,,,,,,,,,,,,,,,,,,,,,,,,,,,,,,,,,,,,,,,,,,,,2,21,Female,2021_Dec_13_1400,uniform_mix,2021.2.3,59.93762883321603,
,,,,,,,,,,,,,,,,,,,,,,,,,,,,,,,,,,,,,,,,space,0.2949788998812437,,,,,,,,,,,,,,,,,,,,,,,,,,,,,,,,,,,,,,,,,,,,,,,,,,,,2,21,Female,2021_Dec_13_1400,uniform_mix,2021.2.3,59.93762883321603,
,,,,,,,,,,,,,,,,,,,,,,,,,,,,,,,,,,,,,,,,,,space,0.16504309978336096,,,,,,,,,,,,,,,,,,,,,,,,,,,,,,,,,,,,,,,,,,,,,,,,,,2,21,Female,2021_Dec_13_1400,uniform_mix,2021.2.3,59.93762883321603,
,,,,,,,,,,,,,,,,,,,,,,,,,,,,,,,,,,,,,,,,,,,,space,0.16976779978722334,,,,,,,,,,,,,,,,,,,,,,,,,,,,,,,,,,,,,,,,,,,,,,,,2,21,Female,2021_Dec_13_1400,uniform_mix,2021.2.3,59.93762883321603,
,,,,,,,,,,,,,,,,,,,,,,,,,,,,,,,,,,,,,,,,,,,,,,space,0.6680844998918474,,,,,,,,,,,,,,,,,,,,,,,,,,,,,,,,,,,,,,,,,,,,,,2,21,Female,2021_Dec_13_1400,uniform_mix,2021.2.3,59.93762883321603,
,,,,,,,,,,,,,,,,,,,,,,,,,,,,,,,,,,,,,,,,,,,,,,,,space,1.927679100073874,space,1.974410000257194,361.0301943998784,361.2013715999201,361.2013715999201,None,,space,3.63544230023399,,,,,,,,,,,,,,,,,,,,,,,,,,,,,,,,,,,2,21,Female,2021_Dec_13_1400,uniform_mix,2021.2.3,59.93762883321603,
,,,,,,,,,,,,,,,,,,,,,,,,,,,,,,,,,,,,,,,,,,,,,,,,,,,,,,,,,,,366.48716109991074,None,space,1.0657357997260988,366.48716109991074,None,,,,,,,,,,,,,,,,,,,,,,,,,,,,,2,21,Female,2021_Dec_13_1400,uniform_mix,2021.2.3,59.93762883321603,
c6_mix_ref.xlsx,c6_mix_t.xlsx,c6_mix.xlsx,stims/contrastref7.png,52,,,,,,,,,,,,,,,,,,,,0,0,0,0,0,0,0,1,,,,,,,,,,,,,,,,,,,space,0.7701376997865736,,,,,,,,,,,,,,n,20.261811000294983,space,0.8600856000557542,390.7673466000706,390.94101259997115,390.94101259997115,None,391.18665749998763,None,space,3.479088599793613,391.18665749998763,None,space,1.009396799840033,,,,,,,,,,,,,2,21,Female,2021_Dec_13_1400,uniform_mix,2021.2.3,59.93762883321603,
c6_mix_ref.xlsx,c6_mix_t.xlsx,c6_mix.xlsx,stims/contrastref10.png,73,,,,,,,,,,,,,,,,,,,,0,0,0,0,0,1,1,4,,,,,,,,,,,,,,,,,,,space,0.5482454998418689,,,,,,,,,,,,,,n,0.2311424002982676,space,0.7109647002071142,398.33546039974317,398.5063897999935,398.5063897999935,None,398.76371520012617,None,space,0.5258515998721123,398.76371520012617,None,space,0.6836732998490334,,,,,,,,,,,,,2,21,Female,2021_Dec_13_1400,uniform_mix,2021.2.3,59.93762883321603,
c6_mix_ref.xlsx,c6_mix_t.xlsx,c6_mix.xlsx,stims/contrastref9.png,44,,,,,,,,,,,,,,,,,,,,0,0,0,0,0,2,2,3,,,,,,,,,,,,,,,,,,,space,0.4765210999175906,,,,,,,,,,,,,,n,0.16508869966492057,space,0.41433609975501895,402.1992947999388,402.37466310011223,402.37466310011223,None,402.6352599998936,None,space,0.23083060001954436,402.6352599998936,None,space,0.4301379998214543,,,,,,,,,,,,,2,21,Female,2021_Dec_13_1400,uniform_mix,2021.2.3,59.93762883321603,
c6_mix_ref.xlsx,c6_mix_t.xlsx,c6_mix.xlsx,stims/contrastref6.png,59,,,,,,,,,,,,,,,,,,,,0,0,0,0,0,3,3,0,,,,,,,,,,,,,,,,,,,space,0.44867199985310435,,,,,,,,,,,,,,n,1.52080769976601,space,0.37672819988802075,406.78320189984515,406.9528123997152,406.9528123997152,None,407.22889619972557,None,space,0.8436687998473644,407.22889619972557,None,space,1.400301800109446,,,,,,,,,,,,,2,21,Female,2021_Dec_13_1400,uniform_mix,2021.2.3,59.93762883321603,
c6_mix_ref.xlsx,c6_mix_t.xlsx,c6_mix.xlsx,stims/contrastref8.png,66,,,,,,,,,,,,,,,,,,,,0,0,0,0,0,4,4,2,,,,,,,,,,,,,,,,,,,space,0.43703449983149767,,,,,,,,,,,,,,n,1.3276933999732137,space,0.7191420001909137,413.19770699972287,413.3701976998709,413.3701976998709,None,413.6317611997947,None,space,0.8822963000275195,413.6317611997947,None,space,1.360750500112772,,,,,,,,,,,,,2,21,Female,2021_Dec_13_1400,uniform_mix,2021.2.3,59.93762883321603,
c6_mix_ref.xlsx,c6_mix_t.xlsx,c6_mix.xlsx,stims/contrast285.png,,285,167,0.6,64,"[(160.0, 170.0), (-200.0, -50.0), (80.0, -80.0), (50.0, 170.0), (-60.0, -200.0), (160.0, -10.0), (300.0, 90.0), (-90.0, 50.0), (-190.0, 90.0), (-240.0, 220.0), (-270.0, 30.0), (170.0, 80.0), (100.0, -30.0), (-160.0, 20.0), (70.0, -140.0), (-100.0, 140.0), (180.0, -220.0), (150.0, -110.0), (290.0, -100.0), (-290.0, -120.0), (-10.0, -100.0), (-60.0, -120.0), (0.0, 130.0), (50.0, -220.0), (-130.0, -80.0), (-40.0, 100.0), (80.0, 90.0), (290.0, 220.0), (-50.0, 220.0), (110.0, 40.0), (-190.0, -190.0), (-110.0, -10.0), (195.85653689903484, 143.97393865980624), (-203.63574042155585, -29.58334850645508), (69.88236791431368, -92.3669896708902), (72.6522140649613, 175.34679583192852), (-87.59987938762109, -181.318886846336), (157.71521216920166, -40.733061266004455), (321.70491792407717, 36.36258443306599), (-84.61962404640136, 66.27160465797284), (-177.4516270461336, 121.86953457084414), (-216.45898069487617, 277.3217937982094), (-281.2228777220686, 74.74614393067765), (193.41126368412768, 47.7153522123393), (90.64734364860634, -41.68795347124258), (-170.81613756007496, 40.90011349763523), (49.37672276061214, -140.6605222706313), (-85.96655619094409, 161.5606869192483), (214.280129288419, -203.37330645255034), (157.0572493623626, -77.10059467399891), (290.52424028331086, -42.43786326014282), (-264.0803780227462, -147.99353416538872), (4.514328298931844, -95.74652675480473), (-39.92425664348545, -125.14816372419165), (-28.133576580626368, 129.17449379141024), (84.72605700825383, -216.90020394531922), (-112.6950536124692, -90.35950536212627), (-54.469252644239646, 97.2685997253674), (56.45375764241102, 107.31011698693555), (255.03148810160843, 281.39469734180386), (-74.73308229980861, 209.3189058590437), (105.36396494498496, 60.46457949577447), (-153.35683515524767, -210.01721042928847), (-113.74071447598088, -28.346493454737725)]","[(160.0, 170.0), (-200.0, -50.0), (80.0, -80.0), (50.0, 170.0), (-60.0, -200.0), (160.0, -10.0), (300.0, 90.0), (-90.0, 50.0), (-190.0, 90.0), (-240.0, 220.0), (-270.0, 30.0), (170.0, 80.0), (100.0, -30.0), (-160.0, 20.0), (70.0, -140.0), (-100.0, 140.0), (180.0, -220.0), (150.0, -110.0), (290.0, -100.0), (-290.0, -120.0), (-10.0, -100.0), (-60.0, -120.0), (0.0, 130.0), (50.0, -220.0), (-130.0, -80.0), (-40.0, 100.0), (80.0, 90.0), (290.0, 220.0), (-50.0, 220.0), (110.0, 40.0), (-190.0, -190.0), (-110.0, -10.0)]","[(195.85653689903484, 143.97393865980624), (-203.63574042155585, -29.58334850645508), (69.88236791431368, -92.3669896708902), (72.6522140649613, 175.34679583192852), (-87.59987938762109, -181.318886846336), (157.71521216920166, -40.733061266004455), (321.70491792407717, 36.36258443306599), (-84.61962404640136, 66.27160465797284), (-177.4516270461336, 121.86953457084414), (-216.45898069487617, 277.3217937982094), (-281.2228777220686, 74.74614393067765), (193.41126368412768, 47.7153522123393), (90.64734364860634, -41.68795347124258), (-170.81613756007496, 40.90011349763523), (49.37672276061214, -140.6605222706313), (-85.96655619094409, 161.5606869192483), (214.280129288419, -203.37330645255034), (157.0572493623626, -77.10059467399891), (290.52424028331086, -42.43786326014282), (-264.0803780227462, -147.99353416538872), (4.514328298931844, -95.74652675480473), (-39.92425664348545, -125.14816372419165), (-28.133576580626368, 129.17449379141024), (84.72605700825383, -216.90020394531922), (-112.6950536124692, -90.35950536212627), (-54.469252644239646, 97.2685997253674), (56.45375764241102, 107.31011698693555), (255.03148810160843, 281.39469734180386), (-74.73308229980861, 209.3189058590437), (105.36396494498496, 60.46457949577447), (-153.35683515524767, -210.01721042928847), (-113.74071447598088, -28.346493454737725)]",1,tangential,127.05,1163.58,12.89,17.78,0.055,1,,,,,0,0,0,0,,,,,0,0,0,140,,,,,,,,,,,,,,,space,1.4888951000757515,,,,,68,,,,,,,,,,,,,,,,,,,,,,,,,space,0.7468983996659517,418.76349109970033,None,,,,,,,,,2,21,Female,2021_Dec_13_1400,uniform_mix,2021.2.3,59.93762883321603,
c6_mix_ref.xlsx,c6_mix_t.xlsx,c6_mix.xlsx,stims/contrast259.png,,259,2109,0.6,62,"[(-290.0, -50.0), (0.0, -220.0), (90.0, -60.0), (0.0, 150.0), (-170.0, -20.0), (120.0, -170.0), (-150.0, 60.0), (250.0, 120.0), (190.0, 30.0), (-60.0, -80.0), (150.0, -80.0), (40.0, 100.0), (0.0, -100.0), (-270.0, -210.0), (-300.0, 160.0), (-110.0, -50.0), (300.0, -200.0), (-60.0, 90.0), (-60.0, 210.0), (80.0, 60.0), (-100.0, 20.0), (50.0, -100.0), (300.0, -60.0), (120.0, -10.0), (130.0, 70.0), (-180.0, 190.0), (-60.0, -130.0), (-230.0, 50.0), (120.0, 200.0), (-120.0, -170.0), (-180.0, -90.0), (96.00059504148706, 46.47908115516711), (-74.98845578578448, -67.19200440071224), (28.678030919657033, -114.39339763031555), (-22.777869471352204, 224.38419452716374), (-295.5119067456439, 219.63152992718122), (-220.56798734032537, 75.55661667240724), (-142.10410553072478, 231.77926030450988), (-46.417538833289214, 96.8493721214624), (339.505883639468, -140.55904338247348), (126.69140761204088, 17.484287470996804), (202.01880264759475, 55.292429810821886), (112.01690704764826, 95.30597247064892), (-106.69783825538411, 1.5341741329938827), (95.38753931280169, 223.1302869939156), (228.2563542180637, 177.5754211802495), (-37.75322367421589, -138.12564930661944), (24.838095753268803, 96.11184871860776), (150.43448489643734, -104.43360356957977), (165.2731696485857, -43.55563557611346), (-13.7158728392331, -102.80282002907927), (16.411470301021126, -100.2212256544883), (-117.42346678585064, -28.840748799697735), (-97.47681081342473, -70.57436711064258), (-267.21657521535406, -163.80556554357577), (-215.89591980479895, -274.3324792090529), (276.9596376476886, -99.83402403679673), (300.14732564414254, -16.910263599493078), (-155.36395603245947, -138.45725080768568), (-88.96359109741513, -182.74950940776995), (-191.37169581700115, -72.07039172546905), (-166.5412458398227, -124.5609864165163)]","[(-290.0, -50.0), (0.0, -220.0), (90.0, -60.0), (0.0, 150.0), (-170.0, -20.0), (120.0, -170.0), (-150.0, 60.0), (250.0, 120.0), (190.0, 30.0), (-60.0, -80.0), (150.0, -80.0), (40.0, 100.0), (0.0, -100.0), (-270.0, -210.0), (-300.0, 160.0), (-110.0, -50.0), (300.0, -200.0), (-60.0, 90.0), (-60.0, 210.0), (80.0, 60.0), (-100.0, 20.0), (50.0, -100.0), (300.0, -60.0), (120.0, -10.0), (130.0, 70.0), (-180.0, 190.0), (-60.0, -130.0), (-230.0, 50.0), (120.0, 200.0), (-120.0, -170.0), (-180.0, -90.0)]","[(96.00059504148706, 46.47908115516711), (-74.98845578578448, -67.19200440071224), (28.678030919657033, -114.39339763031555), (-22.777869471352204, 224.38419452716374), (-295.5119067456439, 219.63152992718122), (-220.56798734032537, 75.55661667240724), (-142.10410553072478, 231.77926030450988), (-46.417538833289214, 96.8493721214624), (339.505883639468, -140.55904338247348), (126.69140761204088, 17.484287470996804), (202.01880264759475, 55.292429810821886), (112.01690704764826, 95.30597247064892), (-106.69783825538411, 1.5341741329938827), (95.38753931280169, 223.1302869939156), (228.2563542180637, 177.5754211802495), (-37.75322367421589, -138.12564930661944), (24.838095753268803, 96.11184871860776), (150.43448489643734, -104.43360356957977), (165.2731696485857, -43.55563557611346), (-13.7158728392331, -102.80282002907927), (16.411470301021126, -100.2212256544883), (-117.42346678585064, -28.840748799697735), (-97.47681081342473, -70.57436711064258), (-267.21657521535406, -163.80556554357577), (-215.89591980479895, -274.3324792090529), (276.9596376476886, -99.83402403679673), (300.14732564414254, -16.910263599493078), (-155.36395603245947, -138.45725080768568), (-88.96359109741513, -182.74950940776995), (-191.37169581700115, -72.07039172546905), (-166.5412458398227, -124.5609864165163)]",0.5,tangential,129.39,1126.74,12.74,17.63,0.055,3,,,,,0,0,0,0,,,,,0,1,1,114,,,,,,,,,,,,,,,space,0.44736519968137145,,,,,54,,,,,,,,,,,,,,,,,,,,,,,,,,,424.94126709969714,None,,,,,,,,,2,21,Female,2021_Dec_13_1400,uniform_mix,2021.2.3,59.93762883321603,
c6_mix_ref.xlsx,c6_mix_t.xlsx,c6_mix.xlsx,stims/contrast163.png,,163,2202,0.6,62,"[(20.0, 120.0), (-290.0, 200.0), (200.0, 150.0), (130.0, -110.0), (-110.0, 20.0), (70.0, -190.0), (90.0, 150.0), (-80.0, 60.0), (140.0, 60.0), (-70.0, 140.0), (210.0, 20.0), (-30.0, 100.0), (-300.0, 40.0), (-160.0, 120.0), (230.0, -100.0), (110.0, 0.0), (90.0, -60.0), (80.0, 70.0), (0.0, -100.0), (240.0, -220.0), (-60.0, -140.0), (-120.0, -60.0), (150.0, -40.0), (-130.0, 220.0), (300.0, 80.0), (10.0, 210.0), (-160.0, -10.0), (-70.0, -80.0), (50.0, -110.0), (-200.0, -140.0), (-60.0, -220.0), (165.83013674215167, -44.262044518333695), (200.20445130697283, -164.55540606628057), (268.1460815588466, -260.96612034141214), (-59.19769047638687, -60.21425133225435), (-87.17758530774076, -93.76491483567663), (253.56459893441703, 48.32271919541972), (358.3620180122369, 79.24538175913402), (-126.57537328753384, 181.6092300802224), (-128.63487945931988, 258.42156934073375), (-180.4536175466865, -109.48468278342668), (-239.0447507779911, -156.65625221564335), (-140.2026283723398, -4.285636203997697), (-184.20624168459426, -22.38366210611751), (11.739251239299524, 162.20897606169316), (22.547967489250006, 236.4258128762262), (98.80900700807351, 0.10639570265724174), (127.886971308126, 3.6601549994403104), (73.64972202298061, -54.06397953089903), (107.4267890835744, -61.97504782464658), (62.63000528317303, 60.900729548324705), (100.19991788423025, 86.57384715220594), (-106.72795233815351, -51.264204412760634), (-143.0672867299105, -78.06844758200381), (40.150286012249104, -82.9708320980743), (56.4720756104676, -121.74476322145932), (-56.022831098119376, -185.55519682249263), (-69.881576797881, -249.1373321977356), (-52.35527967803577, -111.43351709103372), (-79.11637073014329, -162.55229266494626), (1.3691353614377633, -85.99256852231692), (-0.2966744355202735, -122.12969244822798)]","[(20.0, 120.0), (-290.0, 200.0), (200.0, 150.0), (130.0, -110.0), (-110.0, 20.0), (70.0, -190.0), (90.0, 150.0), (-80.0, 60.0), (140.0, 60.0), (-70.0, 140.0), (210.0, 20.0), (-30.0, 100.0), (-300.0, 40.0), (-160.0, 120.0), (230.0, -100.0), (110.0, 0.0), (90.0, -60.0), (80.0, 70.0), (0.0, -100.0), (240.0, -220.0), (-60.0, -140.0), (-120.0, -60.0), (150.0, -40.0), (-130.0, 220.0), (300.0, 80.0), (10.0, 210.0), (-160.0, -10.0), (-70.0, -80.0), (50.0, -110.0), (-200.0, -140.0), (-60.0, -220.0)]","[(165.83013674215167, -44.262044518333695), (200.20445130697283, -164.55540606628057), (268.1460815588466, -260.96612034141214), (-59.19769047638687, -60.21425133225435), (-87.17758530774076, -93.76491483567663), (253.56459893441703, 48.32271919541972), (358.3620180122369, 79.24538175913402), (-126.57537328753384, 181.6092300802224), (-128.63487945931988, 258.42156934073375), (-180.4536175466865, -109.48468278342668), (-239.0447507779911, -156.65625221564335), (-140.2026283723398, -4.285636203997697), (-184.20624168459426, -22.38366210611751), (11.739251239299524, 162.20897606169316), (22.547967489250006, 236.4258128762262), (98.80900700807351, 0.10639570265724174), (127.886971308126, 3.6601549994403104), (73.64972202298061, -54.06397953089903), (107.4267890835744, -61.97504782464658), (62.63000528317303, 60.900729548324705), (100.19991788423025, 86.57384715220594), (-106.72795233815351, -51.264204412760634), (-143.0672867299105, -78.06844758200381), (40.150286012249104, -82.9708320980743), (56.4720756104676, -121.74476322145932), (-56.022831098119376, -185.55519682249263), (-69.881576797881, -249.1373321977356), (-52.35527967803577, -111.43351709103372), (-79.11637073014329, -162.55229266494626), (1.3691353614377633, -85.99256852231692), (-0.2966744355202735, -122.12969244822798)]",0,radial,127.25,1117.39,11.82,16.31,0.0555,3,,,,,0,0,0,0,,,,,0,2,2,18,,,,,,,,,,,,,,,space,0.3705869000405073,,,,,35,,,,,,,,,,,,,,,,,,,,,,,,,,,427.7902746000327,None,,,,,,,,,2,21,Female,2021_Dec_13_1400,uniform_mix,2021.2.3,59.93762883321603,
c6_mix_ref.xlsx,c6_mix_t.xlsx,c6_mix.xlsx,stims/contrast150.png,,150,2433,0.6,56,"[(-110.0, 60.0), (-190.0, 50.0), (-70.0, -100.0), (-240.0, -30.0), (60.0, -90.0), (280.0, -140.0), (100.0, 30.0), (90.0, 150.0), (0.0, 220.0), (-70.0, 150.0), (40.0, -180.0), (-120.0, -60.0), (10.0, -100.0), (120.0, -190.0), (-250.0, -130.0), (40.0, 110.0), (-70.0, 80.0), (-10.0, 130.0), (-150.0, 220.0), (130.0, 80.0), (220.0, 150.0), (120.0, -90.0), (-290.0, 210.0), (230.0, 0.0), (100.0, -20.0), (-100.0, 0.0), (-160.0, -180.0), (-50.0, -200.0), (-234.57313065789774, 169.1368495706229), (-341.66250971171854, 228.99780655055548), (-131.1595722516629, -156.67751612006532), (-183.12645686474076, -211.08150822085832), (-199.7971431251891, -90.37103196847787), (-269.03266685065705, -167.2026101009411), (207.21081952397338, 113.58621688863845), (242.47079129783864, 181.2619613415507), (-15.597526598577598, 115.77035408249701), (-8.307440886855238, 158.8502504410502), (111.84808197939775, 67.7644112574402), (152.0110136083419, 85.25647008504903), (-64.2317444569976, 69.1013535262191), (-78.27725634173936, 91.66552161788276), (40.275281126850295, 89.623658785869), (34.739749835386505, 124.31211136113669), (101.53016831229745, -70.87981460628394), (126.441037146184, -106.0748862984288), (-75.38257616005055, 1.1790394335392023), (-118.11165773787937, -2.2478753280188286), (82.92337304835074, -20.91589762410007), (121.15884839211296, -23.470642673798856), (-42.83805497178054, -178.97026995310387), (-64.71399314338599, -244.52967737392962), (186.3819103452594, 0.44992296801085985), (252.01275154668863, -19.099516620480927), (-151.5281750318241, 185.43188442566972), (-174.47072327556322, 247.44361267620343)]","[(-110.0, 60.0), (-190.0, 50.0), (-70.0, -100.0), (-240.0, -30.0), (60.0, -90.0), (280.0, -140.0), (100.0, 30.0), (90.0, 150.0), (0.0, 220.0), (-70.0, 150.0), (40.0, -180.0), (-120.0, -60.0), (10.0, -100.0), (120.0, -190.0), (-250.0, -130.0), (40.0, 110.0), (-70.0, 80.0), (-10.0, 130.0), (-150.0, 220.0), (130.0, 80.0), (220.0, 150.0), (120.0, -90.0), (-290.0, 210.0), (230.0, 0.0), (100.0, -20.0), (-100.0, 0.0), (-160.0, -180.0), (-50.0, -200.0)]","[(-234.57313065789774, 169.1368495706229), (-341.66250971171854, 228.99780655055548), (-131.1595722516629, -156.67751612006532), (-183.12645686474076, -211.08150822085832), (-199.7971431251891, -90.37103196847787), (-269.03266685065705, -167.2026101009411), (207.21081952397338, 113.58621688863845), (242.47079129783864, 181.2619613415507), (-15.597526598577598, 115.77035408249701), (-8.307440886855238, 158.8502504410502), (111.84808197939775, 67.7644112574402), (152.0110136083419, 85.25647008504903), (-64.2317444569976, 69.1013535262191), (-78.27725634173936, 91.66552161788276), (40.275281126850295, 89.623658785869), (34.739749835386505, 124.31211136113669), (101.53016831229745, -70.87981460628394), (126.441037146184, -106.0748862984288), (-75.38257616005055, 1.1790394335392023), (-118.11165773787937, -2.2478753280188286), (82.92337304835074, -20.91589762410007), (121.15884839211296, -23.470642673798856), (-42.83805497178054, -178.97026995310387), (-64.71399314338599, -244.52967737392962), (186.3819103452594, 0.44992296801085985), (252.01275154668863, -19.099516620480927), (-151.5281750318241, 185.43188442566972), (-174.47072327556322, 247.44361267620343)]",0,radial,124.11,1017.39,12.29,16.99,0.055,2,,,,,0,0,0,0,,,,,0,3,3,5,,,,,,,,,,,,,,,space,0.21669619996100664,,,,,44,,,,,,,,,,,,,,,,,,,,,,,,,,,429.94999599969015,None,,,,,,,,,2,21,Female,2021_Dec_13_1400,uniform_mix,2021.2.3,59.93762883321603,
c6_mix_ref.xlsx,c6_mix_t.xlsx,c6_mix.xlsx,stims/contrast149.png,,149,631,0.6,56,"[(60.0, -120.0), (80.0, 200.0), (-10.0, 170.0), (120.0, -70.0), (-90.0, 50.0), (-80.0, -60.0), (-10.0, -120.0), (70.0, 120.0), (-100.0, -110.0), (-300.0, -110.0), (-270.0, 0.0), (-90.0, 170.0), (110.0, 20.0), (60.0, -220.0), (240.0, -10.0), (300.0, -140.0), (-160.0, 70.0), (80.0, 70.0), (-100.0, 0.0), (-150.0, -30.0), (190.0, 60.0), (-200.0, 150.0), (-200.0, -180.0), (-90.0, 100.0), (210.0, 210.0), (-20.0, 110.0), (160.0, -170.0), (-60.0, -210.0), (134.045617320815, -160.62843366050237), (185.11626053377668, -190.845444038102), (-89.49637160708512, 3.427908894158019), (-110.9527839542348, -5.338871621974816), (-165.97565006955313, 134.52857501482336), (-240.2008731275938, 161.0353837825106), (-76.48631433460119, 77.00639101234684), (-97.01760225066282, 114.79495425863439), (164.84386927200822, 42.06738489723258), (214.59360831887173, 61.35627272821944), (233.7987698716278, -123.45776300864841), (354.03501860092695, -148.10420961023158), (-13.083635080575448, 94.03001627120466), (-25.428134787616585, 127.92962576009), (-53.43435001747327, -166.02089944092074), (-61.4240669155359, -240.18855390904736), (-135.57122763805285, -20.435558957056593), (-171.75640182009536, -44.87555073451243), (-191.22589194888278, -144.45673768576665), (-211.0138260047312, -216.35549078056493), (65.9857501980913, 53.920450624031105), (94.84975327170208, 76.00136361257307), (172.16576299194728, 161.0084505063916), (250.6421200545629, 247.91097091064753), (-131.73405699669763, 64.87779046577678), (-191.65850816318704, 90.03062028056165), (200.8921514629191, 0.6275226928987792), (266.0122499910658, 8.103163921110369)]","[(60.0, -120.0), (80.0, 200.0), (-10.0, 170.0), (120.0, -70.0), (-90.0, 50.0), (-80.0, -60.0), (-10.0, -120.0), (70.0, 120.0), (-100.0, -110.0), (-300.0, -110.0), (-270.0, 0.0), (-90.0, 170.0), (110.0, 20.0), (60.0, -220.0), (240.0, -10.0), (300.0, -140.0), (-160.0, 70.0), (80.0, 70.0), (-100.0, 0.0), (-150.0, -30.0), (190.0, 60.0), (-200.0, 150.0), (-200.0, -180.0), (-90.0, 100.0), (210.0, 210.0), (-20.0, 110.0), (160.0, -170.0), (-60.0, -210.0)]","[(134.045617320815, -160.62843366050237), (185.11626053377668, -190.845444038102), (-89.49637160708512, 3.427908894158019), (-110.9527839542348, -5.338871621974816), (-165.97565006955313, 134.52857501482336), (-240.2008731275938, 161.0353837825106), (-76.48631433460119, 77.00639101234684), (-97.01760225066282, 114.79495425863439), (164.84386927200822, 42.06738489723258), (214.59360831887173, 61.35627272821944), (233.7987698716278, -123.45776300864841), (354.03501860092695, -148.10420961023158), (-13.083635080575448, 94.03001627120466), (-25.428134787616585, 127.92962576009), (-53.43435001747327, -166.02089944092074), (-61.4240669155359, -240.18855390904736), (-135.57122763805285, -20.435558957056593), (-171.75640182009536, -44.87555073451243), (-191.22589194888278, -144.45673768576665), (-211.0138260047312, -216.35549078056493), (65.9857501980913, 53.920450624031105), (94.84975327170208, 76.00136361257307), (172.16576299194728, 161.0084505063916), (250.6421200545629, 247.91097091064753), (-131.73405699669763, 64.87779046577678), (-191.65850816318704, 90.03062028056165), (200.8921514629191, 0.6275226928987792), (266.0122499910658, 8.103163921110369)]",0,radial,124.43,1019.31,12.64,17.37,0.0549,1,,,,,0,0,0,0,,,,,0,4,4,4,,,,,,,,,,,,,,,space,0.2139380001462996,,,,,56,,,,,,,,,,,,,,,,,,,,,,,,,,,432.2367652999237,None,,,,,,,,,2,21,Female,2021_Dec_13_1400,uniform_mix,2021.2.3,59.93762883321603,
c6_mix_ref.xlsx,c6_mix_t.xlsx,c6_mix.xlsx,stims/contrastsub16.png,,16,None,0.6,4,"[(-70.0, -130.0), (-160.0, 40.0), (110.0, 60.0), (170.0, -60.0)]",None,None,None,None,None,None,None,None,None,None,,,,,0,0,0,0,,,,,0,5,5,150,,,,,,,,,,,,,,,space,0.2279376001097262,,,,,4,,,,,,,,,,,,,,,,,,,,,,,,,,,434.7065173997544,None,,,,,,,,,2,21,Female,2021_Dec_13_1400,uniform_mix,2021.2.3,59.93762883321603,
c6_mix_ref.xlsx,c6_mix_t.xlsx,c6_mix.xlsx,stims/contrast190.png,,190,1449,0.6,64,"[(100.0, 40.0), (-70.0, 90.0), (140.0, 110.0), (-120.0, -100.0), (250.0, -70.0), (-80.0, 180.0), (0.0, 120.0), (-170.0, 20.0), (-60.0, -100.0), (60.0, -90.0), (-270.0, -150.0), (-120.0, -30.0), (-180.0, 210.0), (-250.0, -30.0), (230.0, 60.0), (-70.0, -160.0), (100.0, -20.0), (280.0, -190.0), (70.0, 130.0), (20.0, -120.0), (-110.0, 30.0), (40.0, -200.0), (-140.0, -220.0), (20.0, 210.0), (290.0, 170.0), (120.0, -70.0), (140.0, -170.0), (-280.0, 100.0), (150.0, 10.0), (-170.0, 100.0), (180.0, 220.0), (60.0, 80.0), (46.88597827823337, 68.35775344921949), (-104.39182322788125, -33.277351858289684), (48.79160283571464, -167.50228353335527), (-102.34721896351697, -190.95707907392023), (-95.8671306736043, 23.796228132807244), (75.7126134284524, -17.04034552301316), (-235.1962599583602, 101.99241543928395), (51.26234304172749, -77.32146831345875), (166.2992286370326, -205.76897748247043), (40.38906405829527, 228.8913203539739), (207.6192093136495, 256.04430575178696), (140.1217098072467, -72.8979702752248), (268.5047449543798, 77.94698432374808), (-76.80967838399823, -185.8287169357607), (-293.8271760904117, -51.8573149930039), (317.09855886284606, -206.22367645608364), (-204.68716239019682, -120.50292222364321), (-312.25760157162006, -181.22477351367206), (-179.78265222048705, 175.3259548358658), (-221.94470145995922, 249.28268602653438), (229.2888340560645, 150.5985738332084), (303.7934603016136, 212.24112062286002), (19.462682224946256, -95.7928518909032), (25.248945557147476, -136.15275073848898), (62.59549564817734, 99.78527010586933), (87.82575414322318, 150.37001644625792), (-131.47686343345376, 89.01412593418985), (-193.88389874866584, 124.18561991705808), (125.47044788773752, 15.777735980445389), (178.00266055104834, 4.957456856075254), (-51.25372561913753, -88.0600534456978), (-67.06403192644903, -110.81883652936216)]","[(100.0, 40.0), (-70.0, 90.0), (140.0, 110.0), (-120.0, -100.0), (250.0, -70.0), (-80.0, 180.0), (0.0, 120.0), (-170.0, 20.0), (-60.0, -100.0), (60.0, -90.0), (-270.0, -150.0), (-120.0, -30.0), (-180.0, 210.0), (-250.0, -30.0), (230.0, 60.0), (-70.0, -160.0), (100.0, -20.0), (280.0, -190.0), (70.0, 130.0), (20.0, -120.0), (-110.0, 30.0), (40.0, -200.0), (-140.0, -220.0), (20.0, 210.0), (290.0, 170.0), (120.0, -70.0), (140.0, -170.0), (-280.0, 100.0), (150.0, 10.0), (-170.0, 100.0), (180.0, 220.0), (60.0, 80.0)]","[(46.88597827823337, 68.35775344921949), (-104.39182322788125, -33.277351858289684), (48.79160283571464, -167.50228353335527), (-102.34721896351697, -190.95707907392023), (-95.8671306736043, 23.796228132807244), (75.7126134284524, -17.04034552301316), (-235.1962599583602, 101.99241543928395), (51.26234304172749, -77.32146831345875), (166.2992286370326, -205.76897748247043), (40.38906405829527, 228.8913203539739), (207.6192093136495, 256.04430575178696), (140.1217098072467, -72.8979702752248), (268.5047449543798, 77.94698432374808), (-76.80967838399823, -185.8287169357607), (-293.8271760904117, -51.8573149930039), (317.09855886284606, -206.22367645608364), (-204.68716239019682, -120.50292222364321), (-312.25760157162006, -181.22477351367206), (-179.78265222048705, 175.3259548358658), (-221.94470145995922, 249.28268602653438), (229.2888340560645, 150.5985738332084), (303.7934603016136, 212.24112062286002), (19.462682224946256, -95.7928518909032), (25.248945557147476, -136.15275073848898), (62.59549564817734, 99.78527010586933), (87.82575414322318, 150.37001644625792), (-131.47686343345376, 89.01412593418985), (-193.88389874866584, 124.18561991705808), (125.47044788773752, 15.777735980445389), (178.00266055104834, 4.957456856075254), (-51.25372561913753, -88.0600534456978), (-67.06403192644903, -110.81883652936216)]",0.5,radial,132.92,1164.53,12.94,17.98,0.055,2,,,,,0,0,0,0,,,,,0,6,6,45,,,,,,,,,,,,,,,space,0.2278007003478706,,,,,78,,,,,,,,,,,,,,,,,,,,,,,,,,,436.3764339000918,None,,,,,,,,,2,21,Female,2021_Dec_13_1400,uniform_mix,2021.2.3,59.93762883321603,
c6_mix_ref.xlsx,c6_mix_t.xlsx,c6_mix.xlsx,stims/contrast210.png,,210,861,0.6,62,"[(-290.0, 210.0), (-130.0, 70.0), (300.0, -50.0), (50.0, -190.0), (120.0, 40.0), (-60.0, 80.0), (-110.0, 140.0), (70.0, 170.0), (80.0, -60.0), (-180.0, 20.0), (130.0, -120.0), (-140.0, -90.0), (-240.0, 90.0), (210.0, 10.0), (60.0, -120.0), (30.0, 120.0), (-220.0, -60.0), (-300.0, -170.0), (-20.0, 210.0), (230.0, -180.0), (-110.0, -20.0), (-40.0, 140.0), (-60.0, -190.0), (300.0, 180.0), (-150.0, -190.0), (-80.0, -90.0), (100.0, 110.0), (-10.0, 100.0), (160.0, 190.0), (-10.0, -100.0), (130.0, -50.0), (-241.89017612038322, 207.6928449969169), (-113.32918907656065, 57.887936525579164), (234.58127048268386, -28.631378689632207), (54.57242623646148, -154.909355998376), (97.14131305509144, 31.636417626853405), (-47.51994010823123, 77.26548136098941), (-86.81893709361451, 123.79691271359798), (73.88456340952851, 144.38415411963487), (67.14765458175657, -59.519008381945284), (-153.35857897817198, 29.55715254611842), (115.18439207314563, -105.70549859079901), (-109.40705792901396, -81.13065961431765), (-180.7790502518891, 74.0795522068299), (183.01858568970724, -1.8855133681068743), (44.50203371959068, -108.77264573825097), (36.35886438340217, 143.07454598511202), (-248.1265094803895, -86.36902002417855), (-317.8337207863209, -213.13691284602234), (-23.398343090537768, 242.0998174072984), (272.8766783790433, -196.0231389435588), (-129.3063368594218, -18.667436387455993), (-41.22866154436142, 167.30207589989885), (-77.08208033339196, -205.94554092968679), (332.3321201201501, 195.8071861145611), (-170.88882007462533, -205.70909906440275), (-91.85773504811914, -105.14454462236361), (114.84129430470972, 127.5872658845373), (-11.373618650208405, 118.74551202245787), (193.81583041200378, 232.69738657250363), (-18.44841079035435, -115.27558832438984), (160.57797917345556, -58.51623306840989)]","[(-290.0, 210.0), (-130.0, 70.0), (300.0, -50.0), (50.0, -190.0), (120.0, 40.0), (-60.0, 80.0), (-110.0, 140.0), (70.0, 170.0), (80.0, -60.0), (-180.0, 20.0), (130.0, -120.0), (-140.0, -90.0), (-240.0, 90.0), (210.0, 10.0), (60.0, -120.0), (30.0, 120.0), (-220.0, -60.0), (-300.0, -170.0), (-20.0, 210.0), (230.0, -180.0), (-110.0, -20.0), (-40.0, 140.0), (-60.0, -190.0), (300.0, 180.0), (-150.0, -190.0), (-80.0, -90.0), (100.0, 110.0), (-10.0, 100.0), (160.0, 190.0), (-10.0, -100.0), (130.0, -50.0)]","[(-241.89017612038322, 207.6928449969169), (-113.32918907656065, 57.887936525579164), (234.58127048268386, -28.631378689632207), (54.57242623646148, -154.909355998376), (97.14131305509144, 31.636417626853405), (-47.51994010823123, 77.26548136098941), (-86.81893709361451, 123.79691271359798), (73.88456340952851, 144.38415411963487), (67.14765458175657, -59.519008381945284), (-153.35857897817198, 29.55715254611842), (115.18439207314563, -105.70549859079901), (-109.40705792901396, -81.13065961431765), (-180.7790502518891, 74.0795522068299), (183.01858568970724, -1.8855133681068743), (44.50203371959068, -108.77264573825097), (36.35886438340217, 143.07454598511202), (-248.1265094803895, -86.36902002417855), (-317.8337207863209, -213.13691284602234), (-23.398343090537768, 242.0998174072984), (272.8766783790433, -196.0231389435588), (-129.3063368594218, -18.667436387455993), (-41.22866154436142, 167.30207589989885), (-77.08208033339196, -205.94554092968679), (332.3321201201501, 195.8071861145611), (-170.88882007462533, -205.70909906440275), (-91.85773504811914, -105.14454462236361), (114.84129430470972, 127.5872658845373), (-11.373618650208405, 118.74551202245787), (193.81583041200378, 232.69738657250363), (-18.44841079035435, -115.27558832438984), (160.57797917345556, -58.51623306840989)]",1,radial,133.56,1127.69,12.54,17.34,0.055,2,,,,,0,0,0,0,,,,,0,7,7,65,,,,,,,,,,,,,,,space,0.16292819986119866,,,,,80,,,,,,,,,,,,,,,,,,,,,,,,,,,438.3475322998129,None,,,,,,,,,2,21,Female,2021_Dec_13_1400,uniform_mix,2021.2.3,59.93762883321603,
c6_mix_ref.xlsx,c6_mix_t.xlsx,c6_mix.xlsx,stims/contrast173.png,,173,1229,0.6,56,"[(180.0, 20.0), (-280.0, -30.0), (230.0, 140.0), (-220.0, -210.0), (-180.0, 210.0), (80.0, -100.0), (160.0, -100.0), (290.0, -200.0), (130.0, 200.0), (-110.0, -190.0), (-50.0, 180.0), (130.0, -200.0), (-90.0, 90.0), (-40.0, -120.0), (40.0, 160.0), (10.0, -180.0), (40.0, 100.0), (260.0, -50.0), (-110.0, 0.0), (-140.0, -100.0), (-70.0, -80.0), (-40.0, 100.0), (120.0, -20.0), (80.0, 60.0), (110.0, 110.0), (20.0, -110.0), (-300.0, 140.0), (-190.0, 40.0), (-99.23245268561803, -170.1325322919356), (117.0644812898329, 157.5593953936105), (42.20761750795867, 132.7892450307791), (13.71222529652124, -88.40455243107182), (3.8979244595820024, -140.5795076542851), (109.72118585300599, -165.37523946582175), (105.29193815832035, -12.744001714768931), (-349.01463218715617, 179.89764134073891), (136.46471598047435, 126.14076116400355), (-122.0650400410161, 4.069679168226228), (-153.62720457481197, -111.55849421555584), (331.04468711517563, -249.19812663741854), (-77.71218324193491, -98.02555125794083), (-234.42901256080944, 47.66492507745132), (-87.75890051786176, 72.29784666742805), (-97.04390163413893, 104.51628303925075), (29.978388761607746, 84.11428969613462), (50.02624326799774, 109.95850852274465), (-28.508270729091763, -100.82113009329905), (-33.68192737517863, -135.66814122201026), (67.79221955076997, 45.9247881458457), (93.82063500755687, 75.29170366967818), (-33.017316652093385, 155.69922639099386), (-56.67518020786196, 198.13544790314947), (-32.45447619333425, 76.99106673387774), (-42.767156908792856, 115.017745086935), (213.09900723679294, -36.830598270564), (292.1229102686938, -68.93897659920486)]","[(180.0, 20.0), (-280.0, -30.0), (230.0, 140.0), (-220.0, -210.0), (-180.0, 210.0), (80.0, -100.0), (160.0, -100.0), (290.0, -200.0), (130.0, 200.0), (-110.0, -190.0), (-50.0, 180.0), (130.0, -200.0), (-90.0, 90.0), (-40.0, -120.0), (40.0, 160.0), (10.0, -180.0), (40.0, 100.0), (260.0, -50.0), (-110.0, 0.0), (-140.0, -100.0), (-70.0, -80.0), (-40.0, 100.0), (120.0, -20.0), (80.0, 60.0), (110.0, 110.0), (20.0, -110.0), (-300.0, 140.0), (-190.0, 40.0)]","[(-99.23245268561803, -170.1325322919356), (117.0644812898329, 157.5593953936105), (42.20761750795867, 132.7892450307791), (13.71222529652124, -88.40455243107182), (3.8979244595820024, -140.5795076542851), (109.72118585300599, -165.37523946582175), (105.29193815832035, -12.744001714768931), (-349.01463218715617, 179.89764134073891), (136.46471598047435, 126.14076116400355), (-122.0650400410161, 4.069679168226228), (-153.62720457481197, -111.55849421555584), (331.04468711517563, -249.19812663741854), (-77.71218324193491, -98.02555125794083), (-234.42901256080944, 47.66492507745132), (-87.75890051786176, 72.29784666742805), (-97.04390163413893, 104.51628303925075), (29.978388761607746, 84.11428969613462), (50.02624326799774, 109.95850852274465), (-28.508270729091763, -100.82113009329905), (-33.68192737517863, -135.66814122201026), (67.79221955076997, 45.9247881458457), (93.82063500755687, 75.29170366967818), (-33.017316652093385, 155.69922639099386), (-56.67518020786196, 198.13544790314947), (-32.45447619333425, 76.99106673387774), (-42.767156908792856, 115.017745086935), (213.09900723679294, -36.830598270564), (292.1229102686938, -68.93897659920486)]",0.5,radial,128.53,1019.63,11.79,16.39,0.0549,1,,,,,0,0,0,0,,,,,0,8,8,28,,,,,,,,,,,,,,,space,0.21404500026255846,,,,,98,,,,,,,,,,,,,,,,,,,,,,,,,,,439.8532751998864,None,,,,,,,,,2,21,Female,2021_Dec_13_1400,uniform_mix,2021.2.3,59.93762883321603,
c6_mix_ref.xlsx,c6_mix_t.xlsx,c6_mix.xlsx,stims/contrast256.png,,256,2279,0.6,60,"[(-190.0, 100.0), (-170.0, -20.0), (-90.0, 80.0), (170.0, -40.0), (-170.0, 200.0), (170.0, -120.0), (130.0, -200.0), (90.0, 90.0), (-100.0, -90.0), (-120.0, 20.0), (20.0, 110.0), (290.0, 80.0), (20.0, 180.0), (60.0, -80.0), (40.0, -130.0), (10.0, -220.0), (-140.0, -160.0), (280.0, 210.0), (-250.0, -190.0), (300.0, -110.0), (-40.0, 150.0), (-240.0, -70.0), (100.0, 180.0), (110.0, -10.0), (170.0, 60.0), (110.0, -60.0), (-100.0, -40.0), (-280.0, 50.0), (-30.0, -130.0), (-300.0, 190.0), (-164.94630315088637, -143.73597319890067), (19.701747939695508, -139.58068822360056), (309.575138737555, 154.6781522252271), (178.13200904053656, 42.26076312219254), (-112.27150213771142, -28.3150319253522), (-24.366342449938372, 161.60148526086374), (-260.2194080216271, 229.14386287890488), (117.9969243275684, -21.86676562519345), (-120.09749767587398, -2.5416478971088736), (-86.95635433685825, -100.08238354735933), (-19.885381736383977, -143.8749381284561), (80.15979195265574, 108.04303210959561), (-274.6785480554188, 14.82690199746986), (63.87879960861363, 201.03376844610176), (285.51968132414913, 125.7244154742753), (117.67802546581852, -42.13176999631209), (-284.80302859725214, -151.59006399346114), (-202.2588743879117, -211.74558463706626), (56.70427396108062, 174.33288244641284), (-6.038185935084869, 195.0891016743183), (270.83683900499767, -156.12120657614085), (335.7363050491647, -90.71579548902889), (54.12568458629109, -92.97137927338207), (68.82747195985314, -66.51279654093173), (-36.65631552966488, -222.44195228193712), (41.70350083967662, -231.37012114435055), (44.111964562528115, 106.50459150078778), (-6.861346801231264, 115.29836235432278), (-250.8755999659391, -46.24286498416217), (-234.5622435089228, -106.66593022379158)]","[(-190.0, 100.0), (-170.0, -20.0), (-90.0, 80.0), (170.0, -40.0), (-170.0, 200.0), (170.0, -120.0), (130.0, -200.0), (90.0, 90.0), (-100.0, -90.0), (-120.0, 20.0), (20.0, 110.0), (290.0, 80.0), (20.0, 180.0), (60.0, -80.0), (40.0, -130.0), (10.0, -220.0), (-140.0, -160.0), (280.0, 210.0), (-250.0, -190.0), (300.0, -110.0), (-40.0, 150.0), (-240.0, -70.0), (100.0, 180.0), (110.0, -10.0), (170.0, 60.0), (110.0, -60.0), (-100.0, -40.0), (-280.0, 50.0), (-30.0, -130.0), (-300.0, 190.0)]","[(-164.94630315088637, -143.73597319890067), (19.701747939695508, -139.58068822360056), (309.575138737555, 154.6781522252271), (178.13200904053656, 42.26076312219254), (-112.27150213771142, -28.3150319253522), (-24.366342449938372, 161.60148526086374), (-260.2194080216271, 229.14386287890488), (117.9969243275684, -21.86676562519345), (-120.09749767587398, -2.5416478971088736), (-86.95635433685825, -100.08238354735933), (-19.885381736383977, -143.8749381284561), (80.15979195265574, 108.04303210959561), (-274.6785480554188, 14.82690199746986), (63.87879960861363, 201.03376844610176), (285.51968132414913, 125.7244154742753), (117.67802546581852, -42.13176999631209), (-284.80302859725214, -151.59006399346114), (-202.2588743879117, -211.74558463706626), (56.70427396108062, 174.33288244641284), (-6.038185935084869, 195.0891016743183), (270.83683900499767, -156.12120657614085), (335.7363050491647, -90.71579548902889), (54.12568458629109, -92.97137927338207), (68.82747195985314, -66.51279654093173), (-36.65631552966488, -222.44195228193712), (41.70350083967662, -231.37012114435055), (44.111964562528115, 106.50459150078778), (-6.861346801231264, 115.29836235432278), (-250.8755999659391, -46.24286498416217), (-234.5622435089228, -106.66593022379158)]",0.5,tangential,126.32,1091.67,13.18,18.17,0.055,4,,,,,0,0,0,0,,,,,0,9,9,111,,,,,,,,,,,,,,,space,0.1428986000828445,,,,,75,,,,,,,,,,,,,,,,,,,,,,,,,,,441.5742731001228,None,,,,,,,,,2,21,Female,2021_Dec_13_1400,uniform_mix,2021.2.3,59.93762883321603,
c6_mix_ref.xlsx,c6_mix_t.xlsx,c6_mix.xlsx,stims/contrast288.png,,288,1860,0.6,64,"[(110.0, -30.0), (280.0, -210.0), (-160.0, -110.0), (-300.0, -190.0), (-110.0, 220.0), (-50.0, -100.0), (170.0, -100.0), (-30.0, 100.0), (-210.0, 150.0), (100.0, 20.0), (0.0, 200.0), (50.0, -110.0), (-70.0, -180.0), (300.0, 220.0), (70.0, 90.0), (-120.0, 70.0), (270.0, -60.0), (0.0, -100.0), (-100.0, -10.0), (20.0, -160.0), (-190.0, 10.0), (-80.0, -60.0), (280.0, 80.0), (130.0, 180.0), (-100.0, 130.0), (-140.0, -40.0), (130.0, 90.0), (-170.0, -210.0), (160.0, 10.0), (40.0, 140.0), (-290.0, -20.0), (120.0, -210.0), (98.09310658145262, -44.58885203798789), (253.58999921225396, -252.69359635922316), (-178.43750932770388, -95.35991631503052), (-322.23040294746227, -135.26288667423043), (-76.67902165112389, 238.90800016566163), (-66.13943528635757, -97.87458879970538), (144.02731109498507, -120.22207131620391), (-12.539986660258847, 109.96896226406187), (-197.87584428950197, 175.42632697105276), (104.09413656190621, 7.750074202303253), (20.56827007621115, 185.78583885999177), (30.102013598003083, -112.42843083810199), (-110.45215318966899, -163.80023093857693), (353.04163163719267, 149.31984925208434), (75.09752739565326, 75.86011350671585), (-107.71491756202633, 100.28620096525232), (298.74702249210293, -33.95164285183645), (13.544707817795, -104.47661991984263), (-98.17752041095856, -27.249671925907194), (40.802184847052246, -168.0291320563793), (-197.8802607730778, -16.485339739521066), (-73.30937330743717, -69.24493982899523), (271.10697561664233, 146.44215606116987), (84.38934343898131, 207.43414343715256), (-111.12566170591012, 110.03963171572877), (-138.86486767229087, -71.69698849134822), (120.08704851598719, 106.01906417908684), (-130.19418789396576, -249.18410837239054), (167.3123594133336, 29.417226516441815), (22.43699975718215, 145.87651413648274), (-292.37747230304797, -69.22434660465836), (164.4027745733423, -186.8546881552221)]","[(110.0, -30.0), (280.0, -210.0), (-160.0, -110.0), (-300.0, -190.0), (-110.0, 220.0), (-50.0, -100.0), (170.0, -100.0), (-30.0, 100.0), (-210.0, 150.0), (100.0, 20.0), (0.0, 200.0), (50.0, -110.0), (-70.0, -180.0), (300.0, 220.0), (70.0, 90.0), (-120.0, 70.0), (270.0, -60.0), (0.0, -100.0), (-100.0, -10.0), (20.0, -160.0), (-190.0, 10.0), (-80.0, -60.0), (280.0, 80.0), (130.0, 180.0), (-100.0, 130.0), (-140.0, -40.0), (130.0, 90.0), (-170.0, -210.0), (160.0, 10.0), (40.0, 140.0), (-290.0, -20.0), (120.0, -210.0)]","[(98.09310658145262, -44.58885203798789), (253.58999921225396, -252.69359635922316), (-178.43750932770388, -95.35991631503052), (-322.23040294746227, -135.26288667423043), (-76.67902165112389, 238.90800016566163), (-66.13943528635757, -97.87458879970538), (144.02731109498507, -120.22207131620391), (-12.539986660258847, 109.96896226406187), (-197.87584428950197, 175.42632697105276), (104.09413656190621, 7.750074202303253), (20.56827007621115, 185.78583885999177), (30.102013598003083, -112.42843083810199), (-110.45215318966899, -163.80023093857693), (353.04163163719267, 149.31984925208434), (75.09752739565326, 75.86011350671585), (-107.71491756202633, 100.28620096525232), (298.74702249210293, -33.95164285183645), (13.544707817795, -104.47661991984263), (-98.17752041095856, -27.249671925907194), (40.802184847052246, -168.0291320563793), (-197.8802607730778, -16.485339739521066), (-73.30937330743717, -69.24493982899523), (271.10697561664233, 146.44215606116987), (84.38934343898131, 207.43414343715256), (-111.12566170591012, 110.03963171572877), (-138.86486767229087, -71.69698849134822), (120.08704851598719, 106.01906417908684), (-130.19418789396576, -249.18410837239054), (167.3123594133336, 29.417226516441815), (22.43699975718215, 145.87651413648274), (-292.37747230304797, -69.22434660465836), (164.4027745733423, -186.8546881552221)]",1,tangential,129.43,1163.02,12.8,17.73,0.055,4,,,,,0,0,0,0,,,,,0,10,10,143,,,,,,,,,,,,,,,space,0.12227159971371293,,,,,105,,,,,,,,,,,,,,,,,,,,,,,,,,,443.8461055001244,None,,,,,,,,,2,21,Female,2021_Dec_13_1400,uniform_mix,2021.2.3,59.93762883321603,
c6_mix_ref.xlsx,c6_mix_t.xlsx,c6_mix.xlsx,stims/contrast239.png,,239,3799,0.6,64,"[(-260.0, 30.0), (-190.0, 100.0), (-20.0, 130.0), (60.0, -150.0), (-220.0, -60.0), (-20.0, -150.0), (20.0, -110.0), (-100.0, 0.0), (-110.0, 190.0), (0.0, 220.0), (90.0, -100.0), (40.0, 100.0), (-230.0, 210.0), (-110.0, -40.0), (-70.0, -210.0), (-60.0, 90.0), (100.0, 30.0), (270.0, -220.0), (90.0, 90.0), (260.0, 160.0), (-60.0, -100.0), (-300.0, -210.0), (180.0, 80.0), (120.0, -40.0), (-110.0, 110.0), (260.0, 0.0), (-120.0, -130.0), (150.0, -170.0), (150.0, 10.0), (80.0, 170.0), (160.0, -90.0), (-130.0, 40.0), (136.61862419757895, -124.82890722459905), (185.03140483744966, -59.22374418028713), (269.1064576439007, 121.59555596712511), (227.62922498545836, 226.5546074665942), (119.23498646174812, 151.98214546103225), (59.64522976037003, 192.5814716232319), (-351.6977072597162, -165.3531931620009), (-283.3498710643223, -244.34690335232955), (-73.3427002290507, -92.98748506830422), (-43.748265096641944, -112.52365389030737), (185.06764057025273, 56.28483200628415), (169.96714490577472, 117.75726457241174), (106.23513230662573, 69.76089826524395), (79.88134054134461, 106.64717404022568), (106.58297736271778, 20.780874263710857), (99.59033272471845, 48.186171550637866), (-127.20908812839285, 60.922185176248405), (-131.3634887192457, 14.549156503071984), (114.69814869424545, -202.60337967085113), (166.17056782696162, -137.6898565656412), (256.97219358144974, -33.11897136224971), (267.6903761429558, 59.4235680159301), (159.62758379594442, -12.123649112694963), (140.1571387279091, 40.842667095506954), (-149.66861946700678, -100.3680505820815), (-99.86391769895377, -154.8592432919618), (216.09014781207526, -262.8711198991567), (310.48490340331085, -204.3974436024001), (123.94286814067522, -54.36131014553405), (115.11024555342766, -24.484199138444296), (-89.35515294884311, 113.05185523506941), (-126.34028444128668, 98.45121212383793)]","[(-260.0, 30.0), (-190.0, 100.0), (-20.0, 130.0), (60.0, -150.0), (-220.0, -60.0), (-20.0, -150.0), (20.0, -110.0), (-100.0, 0.0), (-110.0, 190.0), (0.0, 220.0), (90.0, -100.0), (40.0, 100.0), (-230.0, 210.0), (-110.0, -40.0), (-70.0, -210.0), (-60.0, 90.0), (100.0, 30.0), (270.0, -220.0), (90.0, 90.0), (260.0, 160.0), (-60.0, -100.0), (-300.0, -210.0), (180.0, 80.0), (120.0, -40.0), (-110.0, 110.0), (260.0, 0.0), (-120.0, -130.0), (150.0, -170.0), (150.0, 10.0), (80.0, 170.0), (160.0, -90.0), (-130.0, 40.0)]","[(136.61862419757895, -124.82890722459905), (185.03140483744966, -59.22374418028713), (269.1064576439007, 121.59555596712511), (227.62922498545836, 226.5546074665942), (119.23498646174812, 151.98214546103225), (59.64522976037003, 192.5814716232319), (-351.6977072597162, -165.3531931620009), (-283.3498710643223, -244.34690335232955), (-73.3427002290507, -92.98748506830422), (-43.748265096641944, -112.52365389030737), (185.06764057025273, 56.28483200628415), (169.96714490577472, 117.75726457241174), (106.23513230662573, 69.76089826524395), (79.88134054134461, 106.64717404022568), (106.58297736271778, 20.780874263710857), (99.59033272471845, 48.186171550637866), (-127.20908812839285, 60.922185176248405), (-131.3634887192457, 14.549156503071984), (114.69814869424545, -202.60337967085113), (166.17056782696162, -137.6898565656412), (256.97219358144974, -33.11897136224971), (267.6903761429558, 59.4235680159301), (159.62758379594442, -12.123649112694963), (140.1571387279091, 40.842667095506954), (-149.66861946700678, -100.3680505820815), (-99.86391769895377, -154.8592432919618), (216.09014781207526, -262.8711198991567), (310.48490340331085, -204.3974436024001), (123.94286814067522, -54.36131014553405), (115.11024555342766, -24.484199138444296), (-89.35515294884311, 113.05185523506941), (-126.34028444128668, 98.45121212383793)]",0,tangential,131.54,1162.99,12.72,17.22,0.055,3,,,,,0,0,0,0,,,,,0,11,11,94,,,,,,,,,,,,,,,space,0.1592145999893546,,,,,120,,,,,,,,,,,,,,,,,,,,,,,,,,,445.83726730011404,None,,,,,,,,,2,21,Female,2021_Dec_13_1400,uniform_mix,2021.2.3,59.93762883321603,
c6_mix_ref.xlsx,c6_mix_t.xlsx,c6_mix.xlsx,stims/contrast180.png,,180,2303,0.6,58,"[(-90.0, -170.0), (20.0, 200.0), (140.0, -10.0), (50.0, 120.0), (-240.0, -220.0), (-150.0, 140.0), (270.0, 180.0), (120.0, -80.0), (-100.0, 20.0), (-100.0, 70.0), (210.0, 40.0), (-280.0, -90.0), (-100.0, -40.0), (-60.0, 150.0), (-300.0, 140.0), (200.0, -190.0), (100.0, -210.0), (40.0, -130.0), (60.0, -80.0), (-10.0, -220.0), (130.0, 210.0), (110.0, 120.0), (-30.0, -110.0), (260.0, -50.0), (-130.0, -90.0), (-210.0, 50.0), (-20.0, 110.0), (100.0, 30.0), (-150.0, -10.0), (-127.42908742234195, 2.432551162256079), (44.23946809914435, -113.06855467427212), (-14.506709367049357, -171.94630260602764), (-114.86192700905042, -70.14029115641118), (-232.9262435772845, 97.97388783734539), (83.34521341740852, 22.8849682571885), (-91.54439176699866, 59.59740737942343), (-345.77343645034546, -117.02446621186127), (-243.03726499184665, 57.74368453325509), (295.7513024593197, -44.41070386187957), (97.97645082563704, -246.12032515250394), (231.9009143730835, -231.22092543465416), (71.34973369135074, -87.66594758721013), (161.3947786104148, 221.80524245721452), (-23.394290328904923, 134.0001207516832), (-52.402311419314, 129.71940871678993), (-77.23298158895933, 184.66634508772816), (-27.78777754933199, -85.45210302981914), (-41.914340252437995, -120.50651845741467), (104.77679504363056, -76.57976499186744), (130.14009734338856, -99.96641929356957), (-80.68285366037244, 15.67026946442262), (-111.52813234234213, 13.553452658804307), (100.53027265654485, 95.23121339958034), (124.66122939575448, 139.84839012388352), (-84.03780190192262, -32.56641482193784), (-112.77446167257689, -43.68880159984023), (183.5984154395755, 33.8955166352235), (238.57048433136328, 48.39941565135847)]","[(-90.0, -170.0), (20.0, 200.0), (140.0, -10.0), (50.0, 120.0), (-240.0, -220.0), (-150.0, 140.0), (270.0, 180.0), (120.0, -80.0), (-100.0, 20.0), (-100.0, 70.0), (210.0, 40.0), (-280.0, -90.0), (-100.0, -40.0), (-60.0, 150.0), (-300.0, 140.0), (200.0, -190.0), (100.0, -210.0), (40.0, -130.0), (60.0, -80.0), (-10.0, -220.0), (130.0, 210.0), (110.0, 120.0), (-30.0, -110.0), (260.0, -50.0), (-130.0, -90.0), (-210.0, 50.0), (-20.0, 110.0), (100.0, 30.0), (-150.0, -10.0)]","[(-127.42908742234195, 2.432551162256079), (44.23946809914435, -113.06855467427212), (-14.506709367049357, -171.94630260602764), (-114.86192700905042, -70.14029115641118), (-232.9262435772845, 97.97388783734539), (83.34521341740852, 22.8849682571885), (-91.54439176699866, 59.59740737942343), (-345.77343645034546, -117.02446621186127), (-243.03726499184665, 57.74368453325509), (295.7513024593197, -44.41070386187957), (97.97645082563704, -246.12032515250394), (231.9009143730835, -231.22092543465416), (71.34973369135074, -87.66594758721013), (161.3947786104148, 221.80524245721452), (-23.394290328904923, 134.0001207516832), (-52.402311419314, 129.71940871678993), (-77.23298158895933, 184.66634508772816), (-27.78777754933199, -85.45210302981914), (-41.914340252437995, -120.50651845741467), (104.77679504363056, -76.57976499186744), (130.14009734338856, -99.96641929356957), (-80.68285366037244, 15.67026946442262), (-111.52813234234213, 13.553452658804307), (100.53027265654485, 95.23121339958034), (124.66122939575448, 139.84839012388352), (-84.03780190192262, -32.56641482193784), (-112.77446167257689, -43.68880159984023), (183.5984154395755, 33.8955166352235), (238.57048433136328, 48.39941565135847)]",0.5,radial,123.74,1054.19,11.89,16.47,0.055,4,,,,,0,0,0,0,,,,,0,12,12,35,,,,,,,,,,,,,,,space,0.09680970013141632,,,,,130,,,,,,,,,,,,,,,,,,,,,,,,,,,448.8935520998202,None,,,,,,,,,2,21,Female,2021_Dec_13_1400,uniform_mix,2021.2.3,59.93762883321603,
c6_mix_ref.xlsx,c6_mix_t.xlsx,c6_mix.xlsx,stims/contrast277.png,,277,417,0.6,60,"[(10.0, 220.0), (20.0, -150.0), (80.0, 100.0), (-80.0, 80.0), (240.0, -110.0), (-110.0, -40.0), (210.0, -10.0), (-100.0, 0.0), (70.0, -110.0), (300.0, 60.0), (-260.0, -140.0), (0.0, 120.0), (-70.0, -80.0), (-40.0, -120.0), (-150.0, 50.0), (100.0, 40.0), (80.0, -220.0), (-90.0, -200.0), (-300.0, 210.0), (190.0, 100.0), (-120.0, -100.0), (220.0, -220.0), (110.0, 170.0), (130.0, -100.0), (-160.0, 220.0), (-90.0, 140.0), (290.0, 210.0), (-270.0, 80.0), (-230.0, -20.0), (130.0, -40.0), (57.96571178982222, 223.94174721202432), (-13.8104723423413, -152.50873187514182), (93.82876312548426, 97.0273900723731), (-66.60093406924435, 82.52985531683441), (223.48673506168018, -151.09473563817238), (-120.67369373141014, -29.84664958319175), (213.72864099506793, -45.16218306130591), (-100.50326422157872, 21.648320274277552), (60.444567294990634, -121.12642664591652), (306.38747107245365, 20.018162634155942), (-291.4738293970013, -114.83156056753762), (14.840253129260944, 109.92321385549363), (-85.15820884149011, -62.60662122852232), (-54.70085414041954, -112.38908009769956), (-141.24237067429652, 75.98593218521884), (92.65540987680689, 56.60702184491247), (112.22276723505826, -212.5908094884541), (-53.144800356552366, -216.13427349287505), (-319.8076031521502, 169.93623098785497), (168.99410101724652, 140.90700626341075), (-98.12792738181534, -119.92265201910519), (228.59254286324364, -175.887013950367), (94.2637315629824, 199.01481167249472), (141.38700209229387, -82.86622378729533), (-186.91280169864842, 176.62046915542174), (-119.18532547547065, 131.88472797719788), (254.71205296481773, 266.0157752633309), (-273.93033583090175, 26.074321906558794), (-221.02742511906692, -54.363242208272226), (141.5810978853394, -19.478048577376114)]","[(10.0, 220.0), (20.0, -150.0), (80.0, 100.0), (-80.0, 80.0), (240.0, -110.0), (-110.0, -40.0), (210.0, -10.0), (-100.0, 0.0), (70.0, -110.0), (300.0, 60.0), (-260.0, -140.0), (0.0, 120.0), (-70.0, -80.0), (-40.0, -120.0), (-150.0, 50.0), (100.0, 40.0), (80.0, -220.0), (-90.0, -200.0), (-300.0, 210.0), (190.0, 100.0), (-120.0, -100.0), (220.0, -220.0), (110.0, 170.0), (130.0, -100.0), (-160.0, 220.0), (-90.0, 140.0), (290.0, 210.0), (-270.0, 80.0), (-230.0, -20.0), (130.0, -40.0)]","[(57.96571178982222, 223.94174721202432), (-13.8104723423413, -152.50873187514182), (93.82876312548426, 97.0273900723731), (-66.60093406924435, 82.52985531683441), (223.48673506168018, -151.09473563817238), (-120.67369373141014, -29.84664958319175), (213.72864099506793, -45.16218306130591), (-100.50326422157872, 21.648320274277552), (60.444567294990634, -121.12642664591652), (306.38747107245365, 20.018162634155942), (-291.4738293970013, -114.83156056753762), (14.840253129260944, 109.92321385549363), (-85.15820884149011, -62.60662122852232), (-54.70085414041954, -112.38908009769956), (-141.24237067429652, 75.98593218521884), (92.65540987680689, 56.60702184491247), (112.22276723505826, -212.5908094884541), (-53.144800356552366, -216.13427349287505), (-319.8076031521502, 169.93623098785497), (168.99410101724652, 140.90700626341075), (-98.12792738181534, -119.92265201910519), (228.59254286324364, -175.887013950367), (94.2637315629824, 199.01481167249472), (141.38700209229387, -82.86622378729533), (-186.91280169864842, 176.62046915542174), (-119.18532547547065, 131.88472797719788), (254.71205296481773, 266.0157752633309), (-273.93033583090175, 26.074321906558794), (-221.02742511906692, -54.363242208272226), (141.5810978853394, -19.478048577376114)]",1,tangential,126.59,1090.5,13.08,18.04,0.055,1,,,,,0,0,0,0,,,,,0,13,13,132,,,,,,,,,,,,,,,space,0.19039510004222393,,,,,85,,,,,,,,,,,,,,,,,,,,,,,,,,,450.8738588998094,None,,,,,,,,,2,21,Female,2021_Dec_13_1400,uniform_mix,2021.2.3,59.93762883321603,
c6_mix_ref.xlsx,c6_mix_t.xlsx,c6_mix.xlsx,stims/contrast225.png,,225,1561,0.6,58,"[(-70.0, 120.0), (-110.0, 20.0), (-120.0, 210.0), (90.0, -70.0), (10.0, 120.0), (-130.0, 110.0), (10.0, -210.0), (-140.0, -70.0), (80.0, -130.0), (100.0, 140.0), (-120.0, -170.0), (-60.0, -130.0), (-300.0, -40.0), (150.0, -190.0), (-200.0, 20.0), (-230.0, -220.0), (300.0, 140.0), (250.0, -120.0), (80.0, 80.0), (20.0, -120.0), (250.0, 20.0), (130.0, 30.0), (100.0, -20.0), (140.0, -50.0), (180.0, 120.0), (-80.0, -70.0), (0.0, 220.0), (-250.0, 190.0), (-80.0, 60.0), (42.929220316330216, -112.49965071099766), (137.34389301950102, -78.54128244855417), (142.12960684134316, -24.56057440299324), (23.333656623136108, 229.4527384531996), (-49.46807577691962, 225.74734083708455), (317.76053744257024, 75.12359794951558), (295.5998652758849, 194.01759519696026), (-250.31314258252007, 228.38729243835652), (-282.17067829550234, 128.12624133532802), (90.92648251271291, -40.091841354890406), (100.82533814947259, -8.154868291246771), (88.63183843904922, 69.51195990451455), (63.119850161266044, 98.8172711513536), (-237.72104488031013, -178.9472031484339), (-196.9758688662236, -272.4105343447077), (237.7541516879902, -26.111894071189795), (232.17271988860426, 65.05725733556133), (204.39530801313725, 106.76721086770704), (168.76647307893154, 146.17034375329757), (238.60679925533486, -164.31716694247146), (266.93761833912276, -72.52176864028903), (-197.008007623571, 53.775568236931974), (-203.78169142096098, -27.36067978710824), (-63.124631195352, 75.93898089765435), (-94.61765525796795, 46.50343485310589), (135.32561508901435, 4.815322164299815), (115.24514896616839, 43.61308210927042), (-90.71635310378731, -58.86693250043447), (-75.1722704309472, -87.36312677804719)]","[(-70.0, 120.0), (-110.0, 20.0), (-120.0, 210.0), (90.0, -70.0), (10.0, 120.0), (-130.0, 110.0), (10.0, -210.0), (-140.0, -70.0), (80.0, -130.0), (100.0, 140.0), (-120.0, -170.0), (-60.0, -130.0), (-300.0, -40.0), (150.0, -190.0), (-200.0, 20.0), (-230.0, -220.0), (300.0, 140.0), (250.0, -120.0), (80.0, 80.0), (20.0, -120.0), (250.0, 20.0), (130.0, 30.0), (100.0, -20.0), (140.0, -50.0), (180.0, 120.0), (-80.0, -70.0), (0.0, 220.0), (-250.0, 190.0), (-80.0, 60.0)]","[(42.929220316330216, -112.49965071099766), (137.34389301950102, -78.54128244855417), (142.12960684134316, -24.56057440299324), (23.333656623136108, 229.4527384531996), (-49.46807577691962, 225.74734083708455), (317.76053744257024, 75.12359794951558), (295.5998652758849, 194.01759519696026), (-250.31314258252007, 228.38729243835652), (-282.17067829550234, 128.12624133532802), (90.92648251271291, -40.091841354890406), (100.82533814947259, -8.154868291246771), (88.63183843904922, 69.51195990451455), (63.119850161266044, 98.8172711513536), (-237.72104488031013, -178.9472031484339), (-196.9758688662236, -272.4105343447077), (237.7541516879902, -26.111894071189795), (232.17271988860426, 65.05725733556133), (204.39530801313725, 106.76721086770704), (168.76647307893154, 146.17034375329757), (238.60679925533486, -164.31716694247146), (266.93761833912276, -72.52176864028903), (-197.008007623571, 53.775568236931974), (-203.78169142096098, -27.36067978710824), (-63.124631195352, 75.93898089765435), (-94.61765525796795, 46.50343485310589), (135.32561508901435, 4.815322164299815), (115.24514896616839, 43.61308210927042), (-90.71635310378731, -58.86693250043447), (-75.1722704309472, -87.36312677804719)]",0,tangential,124.32,1055.43,12.76,17.51,0.055,1,,,,,0,0,0,0,,,,,0,14,14,80,,,,,,,,,,,,,,,space,0.21580039989203215,,,,,77,,,,,,,,,,,,,,,,,,,,,,,,,,,452.6880695996806,None,,,,,,,,,2,21,Female,2021_Dec_13_1400,uniform_mix,2021.2.3,59.93762883321603,
c6_mix_ref.xlsx,c6_mix_t.xlsx,c6_mix.xlsx,stims/contrastsub18.png,,18,None,0.6,4,"[(100.0, -50.0), (-190.0, 140.0), (-200.0, -140.0), (-190.0, -70.0)]",None,None,None,None,None,None,None,None,None,None,,,,,0,0,0,0,,,,,0,15,15,152,,,,,,,,,,,,,,,space,0.12778900004923344,,,,,4,,,,,,,,,,,,,,,,,,,,,,,,,,,454.4872583998367,None,,,,,,,,,2,21,Female,2021_Dec_13_1400,uniform_mix,2021.2.3,59.93762883321603,
c6_mix_ref.xlsx,c6_mix_t.xlsx,c6_mix.xlsx,stims/contrast187.png,,187,262,0.6,62,"[(40.0, 110.0), (80.0, -140.0), (120.0, -40.0), (-230.0, 200.0), (90.0, 160.0), (-90.0, 150.0), (90.0, 80.0), (150.0, -100.0), (-140.0, -70.0), (-150.0, -220.0), (30.0, 210.0), (0.0, -130.0), (-20.0, 150.0), (-50.0, 90.0), (-260.0, 20.0), (-200.0, 90.0), (70.0, -80.0), (-120.0, 70.0), (-100.0, -20.0), (-260.0, -180.0), (270.0, 210.0), (-60.0, -90.0), (240.0, -210.0), (250.0, 20.0), (0.0, 100.0), (60.0, -220.0), (150.0, 40.0), (-80.0, -150.0), (-150.0, 10.0), (190.0, 110.0), (100.0, 10.0), (56.565858293448635, -70.93066836376276), (-153.0569629046497, 67.10843891009331), (57.952298842523334, -196.0560032945868), (-46.41092819960123, 75.8414505909401), (-92.3257947597497, 60.13836805069526), (218.57940003787022, -3.288579437461236), (-48.02453280370456, -75.04017387343785), (-206.68940602498168, -162.38547476280075), (-12.689327351079836, 170.08221674197392), (-184.1673041112337, 16.16182191106514), (-175.0663358018566, -257.7458646868398), (50.17593139952482, 234.9941966845589), (-167.58526500374774, -76.19186614183833), (286.09936361674824, 244.63550503256735), (-304.3992023206596, 5.0572055949270975), (177.55638006511424, -101.34682933642019), (278.27701563669143, -251.5915343016133), (-58.95826303501363, -123.77211982606804), (-97.74428709308644, -179.70950037679026), (0.5850820065114561, -115.30175893268704), (-4.881013861731358, -143.6738161722475), (-79.20077475457083, -15.276342553195175), (-120.1346128909565, -21.936407541769398), (0.9194433576986576, 86.8655129472295), (-0.755809838716587, 118.08416564610681), (127.89263732001608, 32.62951202348352), (179.3934683609599, 50.49375013239809), (85.32177547927506, 11.630246140094899), (121.75581135664807, 6.956548173626738), (155.06910597235887, 80.97665962763172), (215.7637043735825, 134.6232057659002)]","[(40.0, 110.0), (80.0, -140.0), (120.0, -40.0), (-230.0, 200.0), (90.0, 160.0), (-90.0, 150.0), (90.0, 80.0), (150.0, -100.0), (-140.0, -70.0), (-150.0, -220.0), (30.0, 210.0), (0.0, -130.0), (-20.0, 150.0), (-50.0, 90.0), (-260.0, 20.0), (-200.0, 90.0), (70.0, -80.0), (-120.0, 70.0), (-100.0, -20.0), (-260.0, -180.0), (270.0, 210.0), (-60.0, -90.0), (240.0, -210.0), (250.0, 20.0), (0.0, 100.0), (60.0, -220.0), (150.0, 40.0), (-80.0, -150.0), (-150.0, 10.0), (190.0, 110.0), (100.0, 10.0)]","[(56.565858293448635, -70.93066836376276), (-153.0569629046497, 67.10843891009331), (57.952298842523334, -196.0560032945868), (-46.41092819960123, 75.8414505909401), (-92.3257947597497, 60.13836805069526), (218.57940003787022, -3.288579437461236), (-48.02453280370456, -75.04017387343785), (-206.68940602498168, -162.38547476280075), (-12.689327351079836, 170.08221674197392), (-184.1673041112337, 16.16182191106514), (-175.0663358018566, -257.7458646868398), (50.17593139952482, 234.9941966845589), (-167.58526500374774, -76.19186614183833), (286.09936361674824, 244.63550503256735), (-304.3992023206596, 5.0572055949270975), (177.55638006511424, -101.34682933642019), (278.27701563669143, -251.5915343016133), (-58.95826303501363, -123.77211982606804), (-97.74428709308644, -179.70950037679026), (0.5850820065114561, -115.30175893268704), (-4.881013861731358, -143.6738161722475), (-79.20077475457083, -15.276342553195175), (-120.1346128909565, -21.936407541769398), (0.9194433576986576, 86.8655129472295), (-0.755809838716587, 118.08416564610681), (127.89263732001608, 32.62951202348352), (179.3934683609599, 50.49375013239809), (85.32177547927506, 11.630246140094899), (121.75581135664807, 6.956548173626738), (155.06910597235887, 80.97665962763172), (215.7637043735825, 134.6232057659002)]",0.5,radial,129.73,1126.86,11.85,16.45,0.055,3,,,,,0,0,0,0,,,,,0,16,16,42,,,,,,,,,,,,,,,space,0.22393629979342222,,,,,57,,,,,,,,,,,,,,,,,,,,,,,,,,,456.4000909999013,None,,,,,,,,,2,21,Female,2021_Dec_13_1400,uniform_mix,2021.2.3,59.93762883321603,
c6_mix_ref.xlsx,c6_mix_t.xlsx,c6_mix.xlsx,stims/contrast257.png,,257,1802,0.6,62,"[(220.0, -30.0), (-10.0, -210.0), (-100.0, 140.0), (130.0, -60.0), (-120.0, -100.0), (150.0, -130.0), (90.0, -220.0), (80.0, -90.0), (160.0, 30.0), (140.0, 130.0), (-210.0, -50.0), (100.0, 200.0), (-250.0, 80.0), (300.0, -170.0), (110.0, 70.0), (-230.0, 210.0), (-120.0, -30.0), (-300.0, -130.0), (-100.0, 20.0), (100.0, 10.0), (-30.0, -110.0), (-20.0, 140.0), (30.0, -130.0), (60.0, 100.0), (250.0, 220.0), (230.0, 90.0), (-90.0, -160.0), (-60.0, 210.0), (-200.0, -190.0), (-160.0, 80.0), (-90.0, 80.0), (69.8927711896311, 91.18526283460241), (308.69296524265053, 180.75640068273168), (-218.5801091045823, -157.57259077115563), (151.7413550069582, 6.60679074182093), (-68.35278896792789, 96.43271879116043), (-175.9883933920303, 252.84164534534688), (-93.0272532904828, 30.61100803236478), (5.957138758856601, 150.90950125970673), (50.79569938998475, 214.33848757426432), (209.54956500936547, 143.89800403863273), (-12.08432024862708, -115.73390245963205), (-159.90960066043792, 58.51816319984823), (89.98198025882627, -83.1024420517999), (113.13099429475605, 151.2013564845871), (-251.2320810744174, 27.35409070988098), (-111.6943486428307, 198.37724583339713), (-65.17999143127673, -157.19165066161486), (-116.18208067026342, -12.411519448704766), (-106.63870056961774, -48.736415540851596), (15.517109919528536, -130.0142958338481), (53.621326391879634, -132.07223854920883), (126.75397881622818, 65.90686294344411), (99.1164584352348, 91.12654191262878), (-342.46472940239073, -78.33791365307184), (-261.03334635288195, -182.0340997594523), (279.45869702725, -215.03801170732143), (325.9300804451564, -115.41035197812641), (-195.51442966514745, -25.632788175530095), (-193.5144795835899, -86.79868915668419), (106.07701836400722, -4.775043680188887), (96.48245798652422, 33.28103058375393)]","[(220.0, -30.0), (-10.0, -210.0), (-100.0, 140.0), (130.0, -60.0), (-120.0, -100.0), (150.0, -130.0), (90.0, -220.0), (80.0, -90.0), (160.0, 30.0), (140.0, 130.0), (-210.0, -50.0), (100.0, 200.0), (-250.0, 80.0), (300.0, -170.0), (110.0, 70.0), (-230.0, 210.0), (-120.0, -30.0), (-300.0, -130.0), (-100.0, 20.0), (100.0, 10.0), (-30.0, -110.0), (-20.0, 140.0), (30.0, -130.0), (60.0, 100.0), (250.0, 220.0), (230.0, 90.0), (-90.0, -160.0), (-60.0, 210.0), (-200.0, -190.0), (-160.0, 80.0), (-90.0, 80.0)]","[(69.8927711896311, 91.18526283460241), (308.69296524265053, 180.75640068273168), (-218.5801091045823, -157.57259077115563), (151.7413550069582, 6.60679074182093), (-68.35278896792789, 96.43271879116043), (-175.9883933920303, 252.84164534534688), (-93.0272532904828, 30.61100803236478), (5.957138758856601, 150.90950125970673), (50.79569938998475, 214.33848757426432), (209.54956500936547, 143.89800403863273), (-12.08432024862708, -115.73390245963205), (-159.90960066043792, 58.51816319984823), (89.98198025882627, -83.1024420517999), (113.13099429475605, 151.2013564845871), (-251.2320810744174, 27.35409070988098), (-111.6943486428307, 198.37724583339713), (-65.17999143127673, -157.19165066161486), (-116.18208067026342, -12.411519448704766), (-106.63870056961774, -48.736415540851596), (15.517109919528536, -130.0142958338481), (53.621326391879634, -132.07223854920883), (126.75397881622818, 65.90686294344411), (99.1164584352348, 91.12654191262878), (-342.46472940239073, -78.33791365307184), (-261.03334635288195, -182.0340997594523), (279.45869702725, -215.03801170732143), (325.9300804451564, -115.41035197812641), (-195.51442966514745, -25.632788175530095), (-193.5144795835899, -86.79868915668419), (106.07701836400722, -4.775043680188887), (96.48245798652422, 33.28103058375393)]",0.5,tangential,128.1,1127.66,12.75,17.59,0.055,1,,,,,0,0,0,0,,,,,0,17,17,112,,,,,,,,,,,,,,,space,0.1886106999590993,,,,,78,,,,,,,,,,,,,,,,,,,,,,,,,,,459.79786959988996,None,,,,,,,,,2,21,Female,2021_Dec_13_1400,uniform_mix,2021.2.3,59.93762883321603,
c6_mix_ref.xlsx,c6_mix_t.xlsx,c6_mix.xlsx,stims/contrast181.png,,181,875,0.6,60,"[(110.0, -90.0), (-100.0, -130.0), (-60.0, 100.0), (240.0, -20.0), (260.0, 90.0), (50.0, 180.0), (260.0, 210.0), (-80.0, -70.0), (-60.0, -190.0), (-190.0, -160.0), (80.0, -200.0), (-10.0, -120.0), (140.0, 130.0), (-190.0, 30.0), (-300.0, 220.0), (210.0, -170.0), (-160.0, -40.0), (110.0, 0.0), (80.0, 60.0), (140.0, 60.0), (-300.0, -80.0), (160.0, -50.0), (0.0, 110.0), (30.0, -100.0), (-100.0, 0.0), (-120.0, 170.0), (-200.0, 120.0), (60.0, 110.0), (-100.0, 50.0), (-20.0, 220.0), (-13.869627741666104, -102.10438591018374), (111.9411924949154, 54.92011578852891), (125.04440828180877, -32.361407220918714), (-104.05876352105082, 129.60663545809828), (19.454627619785096, -92.12160093578208), (64.89964830896497, 58.922192193601504), (-249.92749322719354, 158.5545078616273), (-66.98862656009777, -57.8875221610169), (63.10048607271105, 133.00968861435567), (-228.89844286014122, 126.38280625028655), (1.9917185870069698, 127.73553373359475), (-110.63600263542806, -6.7641374638812195), (252.96542188410217, -213.34108333020424), (-216.94477190153725, 29.848846290698212), (-5.460948415154718, 251.78511293503672), (100.20467711628584, -244.80900824558918), (-153.08171098542078, -154.84779244696338), (-224.95407569132482, -193.4880956885348), (-130.1922794660089, -45.04925053320111), (-192.2014818675314, -47.640469347065846), (93.70121610818232, -2.084554321400242), (122.19329583129952, -1.9030948643541876), (-40.59505674905381, -170.60282158206405), (-80.1356469357662, -216.11832116155801), (-88.3547200635748, 45.501913826408625), (-114.38860236273456, 49.17484523984211), (-254.909094020356, -72.49485861491516), (-332.73702674054664, -89.83133029737024), (114.26462866418396, 123.48187033066698), (155.02417888393475, 155.19852704831322)]","[(110.0, -90.0), (-100.0, -130.0), (-60.0, 100.0), (240.0, -20.0), (260.0, 90.0), (50.0, 180.0), (260.0, 210.0), (-80.0, -70.0), (-60.0, -190.0), (-190.0, -160.0), (80.0, -200.0), (-10.0, -120.0), (140.0, 130.0), (-190.0, 30.0), (-300.0, 220.0), (210.0, -170.0), (-160.0, -40.0), (110.0, 0.0), (80.0, 60.0), (140.0, 60.0), (-300.0, -80.0), (160.0, -50.0), (0.0, 110.0), (30.0, -100.0), (-100.0, 0.0), (-120.0, 170.0), (-200.0, 120.0), (60.0, 110.0), (-100.0, 50.0), (-20.0, 220.0)]","[(-13.869627741666104, -102.10438591018374), (111.9411924949154, 54.92011578852891), (125.04440828180877, -32.361407220918714), (-104.05876352105082, 129.60663545809828), (19.454627619785096, -92.12160093578208), (64.89964830896497, 58.922192193601504), (-249.92749322719354, 158.5545078616273), (-66.98862656009777, -57.8875221610169), (63.10048607271105, 133.00968861435567), (-228.89844286014122, 126.38280625028655), (1.9917185870069698, 127.73553373359475), (-110.63600263542806, -6.7641374638812195), (252.96542188410217, -213.34108333020424), (-216.94477190153725, 29.848846290698212), (-5.460948415154718, 251.78511293503672), (100.20467711628584, -244.80900824558918), (-153.08171098542078, -154.84779244696338), (-224.95407569132482, -193.4880956885348), (-130.1922794660089, -45.04925053320111), (-192.2014818675314, -47.640469347065846), (93.70121610818232, -2.084554321400242), (122.19329583129952, -1.9030948643541876), (-40.59505674905381, -170.60282158206405), (-80.1356469357662, -216.11832116155801), (-88.3547200635748, 45.501913826408625), (-114.38860236273456, 49.17484523984211), (-254.909094020356, -72.49485861491516), (-332.73702674054664, -89.83133029737024), (114.26462866418396, 123.48187033066698), (155.02417888393475, 155.19852704831322)]",0.5,radial,126.61,1091.57,12.1,16.65,0.055,1,,,,,0,0,0,0,,,,,0,18,18,36,,,,,,,,,,,,,,,space,0.13598400028422475,,,,,99,,,,,,,,,,,,,,,,,,,,,,,,,,,461.7533336998895,None,,,,,,,,,2,21,Female,2021_Dec_13_1400,uniform_mix,2021.2.3,59.93762883321603,
c6_mix_ref.xlsx,c6_mix_t.xlsx,c6_mix.xlsx,stims/contrast194.png,,194,3430,0.6,54,"[(-140.0, -180.0), (-260.0, -10.0), (-80.0, 220.0), (-60.0, 130.0), (-70.0, -100.0), (40.0, -190.0), (30.0, 220.0), (80.0, -130.0), (-80.0, 60.0), (270.0, 110.0), (150.0, -60.0), (20.0, 110.0), (20.0, -100.0), (-50.0, -160.0), (-170.0, 90.0), (80.0, -70.0), (160.0, 140.0), (-120.0, -40.0), (140.0, -210.0), (160.0, 50.0), (90.0, 100.0), (280.0, -190.0), (100.0, 20.0), (250.0, 10.0), (-250.0, -160.0), (-210.0, 200.0), (-160.0, 20.0), (-111.62594598423323, -142.39638964666003), (-230.74743818451276, 13.568486912950384), (-72.49804524449314, 175.35015160570268), (-44.169921185917076, 102.92183666902197), (-52.03730422150571, -82.02655676400863), (37.750273072267795, -164.4504684800388), (30.194837248627103, 195.07288300916156), (58.84707337069007, -115.76480153587727), (-62.775381446907566, 49.15178260292714), (208.2677688323171, 78.27511035314208), (125.9069335297942, -52.464955806865596), (10.54631682467188, 88.88983911698188), (19.94215316743602, -83.3567741347306), (-50.65056999340179, -186.64575414581606), (-197.7691655889349, 85.7797936457199), (91.15545372295031, -83.90405511344454), (187.92230276801098, 144.23991541788868), (-136.74533217713355, -46.60713769923955), (143.06630212439802, -244.28250960502737), (173.4184737284043, 68.04980383028436), (108.95992598239457, 109.49256347431128), (330.39963485331447, -205.53097436931057), (113.23067598092457, 14.284414613246838), (286.42104869993227, 8.043642261793812), (-282.98625138771735, -166.6880534853436), (-238.3927640868855, 237.39194441321712), (-188.4094180374262, 18.452866532505507)]","[(-140.0, -180.0), (-260.0, -10.0), (-80.0, 220.0), (-60.0, 130.0), (-70.0, -100.0), (40.0, -190.0), (30.0, 220.0), (80.0, -130.0), (-80.0, 60.0), (270.0, 110.0), (150.0, -60.0), (20.0, 110.0), (20.0, -100.0), (-50.0, -160.0), (-170.0, 90.0), (80.0, -70.0), (160.0, 140.0), (-120.0, -40.0), (140.0, -210.0), (160.0, 50.0), (90.0, 100.0), (280.0, -190.0), (100.0, 20.0), (250.0, 10.0), (-250.0, -160.0), (-210.0, 200.0), (-160.0, 20.0)]","[(-111.62594598423323, -142.39638964666003), (-230.74743818451276, 13.568486912950384), (-72.49804524449314, 175.35015160570268), (-44.169921185917076, 102.92183666902197), (-52.03730422150571, -82.02655676400863), (37.750273072267795, -164.4504684800388), (30.194837248627103, 195.07288300916156), (58.84707337069007, -115.76480153587727), (-62.775381446907566, 49.15178260292714), (208.2677688323171, 78.27511035314208), (125.9069335297942, -52.464955806865596), (10.54631682467188, 88.88983911698188), (19.94215316743602, -83.3567741347306), (-50.65056999340179, -186.64575414581606), (-197.7691655889349, 85.7797936457199), (91.15545372295031, -83.90405511344454), (187.92230276801098, 144.23991541788868), (-136.74533217713355, -46.60713769923955), (143.06630212439802, -244.28250960502737), (173.4184737284043, 68.04980383028436), (108.95992598239457, 109.49256347431128), (330.39963485331447, -205.53097436931057), (113.23067598092457, 14.284414613246838), (286.42104869993227, 8.043642261793812), (-282.98625138771735, -166.6880534853436), (-238.3927640868855, 237.39194441321712), (-188.4094180374262, 18.452866532505507)]",1,radial,123.37,982.33,12.39,17.12,0.055,2,,,,,0,0,0,0,,,,,0,19,19,49,,,,,,,,,,,,,,,space,0.1301442999392748,,,,,75,,,,,,,,,,,,,,,,,,,,,,,,,,,463.71843979973346,None,,,,,,,,,2,21,Female,2021_Dec_13_1400,uniform_mix,2021.2.3,59.93762883321603,
c6_mix_ref.xlsx,c6_mix_t.xlsx,c6_mix.xlsx,stims/contrast152.png,,152,4591,0.6,56,"[(-110.0, -60.0), (140.0, 40.0), (-130.0, 70.0), (-180.0, -190.0), (30.0, 100.0), (-20.0, 130.0), (-90.0, 130.0), (150.0, -90.0), (100.0, 10.0), (40.0, -130.0), (-230.0, 90.0), (190.0, 140.0), (130.0, -30.0), (-60.0, -210.0), (-220.0, -40.0), (80.0, 90.0), (-200.0, 220.0), (-20.0, -100.0), (70.0, 180.0), (60.0, -80.0), (-80.0, -120.0), (-60.0, 220.0), (-280.0, -140.0), (230.0, -200.0), (120.0, -190.0), (-110.0, -10.0), (290.0, -20.0), (-80.0, 60.0), (-92.89894669940486, -3.407832542226714), (-127.0780969268918, -16.92849356594296), (-178.27001095592115, 168.77640804981232), (-236.4134120460834, 257.08178355800476), (89.95112454716588, -144.68754354588722), (121.44554604140467, -222.77758187604414), (-78.23569513349781, -102.30800708587293), (-91.04513391406019, -145.28202961702732), (-14.759174311403353, -88.36365979357078), (-28.07120929049754, -116.75379922325263), (-185.00906541355047, -25.112415598305667), (-263.23848445646667, -37.3411002480845), (254.140369468768, 0.4387570754730703), (329.0385342680587, -44.882995768559255), (-61.766406715747806, 50.048332055392876), (-90.37993762199032, 70.33905723595277), (59.09344496714721, 75.62748081740462), (95.23658236176662, 95.74927209373007), (-59.78925548998855, 178.31510842212955), (-79.47494321537104, 238.33358031808018), (48.205122494026156, -63.917659717534534), (67.5561520179493, -98.40295887628437), (54.966858455557116, 147.67138237204378), (71.5743415105506, 213.61595046623026), (-238.61331102942165, -111.70703575449285), (-325.4535370016983, -152.8286228130518), (190.79465066024937, -195.56353809926424), (290.36042661642784, -236.77978862826438)]","[(-110.0, -60.0), (140.0, 40.0), (-130.0, 70.0), (-180.0, -190.0), (30.0, 100.0), (-20.0, 130.0), (-90.0, 130.0), (150.0, -90.0), (100.0, 10.0), (40.0, -130.0), (-230.0, 90.0), (190.0, 140.0), (130.0, -30.0), (-60.0, -210.0), (-220.0, -40.0), (80.0, 90.0), (-200.0, 220.0), (-20.0, -100.0), (70.0, 180.0), (60.0, -80.0), (-80.0, -120.0), (-60.0, 220.0), (-280.0, -140.0), (230.0, -200.0), (120.0, -190.0), (-110.0, -10.0), (290.0, -20.0), (-80.0, 60.0)]","[(-92.89894669940486, -3.407832542226714), (-127.0780969268918, -16.92849356594296), (-178.27001095592115, 168.77640804981232), (-236.4134120460834, 257.08178355800476), (89.95112454716588, -144.68754354588722), (121.44554604140467, -222.77758187604414), (-78.23569513349781, -102.30800708587293), (-91.04513391406019, -145.28202961702732), (-14.759174311403353, -88.36365979357078), (-28.07120929049754, -116.75379922325263), (-185.00906541355047, -25.112415598305667), (-263.23848445646667, -37.3411002480845), (254.140369468768, 0.4387570754730703), (329.0385342680587, -44.882995768559255), (-61.766406715747806, 50.048332055392876), (-90.37993762199032, 70.33905723595277), (59.09344496714721, 75.62748081740462), (95.23658236176662, 95.74927209373007), (-59.78925548998855, 178.31510842212955), (-79.47494321537104, 238.33358031808018), (48.205122494026156, -63.917659717534534), (67.5561520179493, -98.40295887628437), (54.966858455557116, 147.67138237204378), (71.5743415105506, 213.61595046623026), (-238.61331102942165, -111.70703575449285), (-325.4535370016983, -152.8286228130518), (190.79465066024937, -195.56353809926424), (290.36042661642784, -236.77978862826438)]",0,radial,125.67,1018.71,12.36,17.18,0.055,4,,,,,0,0,0,0,,,,,0,20,20,7,,,,,,,,,,,,,,,space,0.1426431001164019,,,,,46,,,,,,,,,,,,,,,,,,,,,,,,,,,465.58237370010465,None,,,,,,,,,2,21,Female,2021_Dec_13_1400,uniform_mix,2021.2.3,59.93762883321603,
c6_mix_ref.xlsx,c6_mix_t.xlsx,c6_mix.xlsx,stims/contrast244.png,,244,1934,0.6,54,"[(-150.0, 10.0), (-260.0, -30.0), (190.0, 190.0), (180.0, 90.0), (-50.0, -90.0), (-100.0, -130.0), (-120.0, -50.0), (110.0, 10.0), (130.0, -220.0), (100.0, -130.0), (-270.0, -150.0), (-230.0, 120.0), (70.0, 150.0), (300.0, -10.0), (0.0, -110.0), (200.0, -40.0), (20.0, -200.0), (10.0, 140.0), (-60.0, 90.0), (-110.0, -220.0), (-100.0, 30.0), (100.0, 80.0), (-60.0, 190.0), (-130.0, 130.0), (290.0, -210.0), (50.0, -90.0), (120.0, -70.0), (101.92302983035484, -98.55122194005078), (190.73573074612227, -68.22538835190514), (-18.071461287489498, -114.7594510396614), (-307.9695862319783, -93.79847209634198), (-208.69364808967026, 175.4220982695873), (110.8991015488335, -9.436434352989423), (-53.09161322600387, 104.96075899038601), (296.25208098036484, 47.860098119864546), (44.232720597155634, -180.69013481000866), (118.27061765220415, -110.15585811567676), (-15.110574875155393, 134.508025818423), (-68.63209564766808, -228.98646683826442), (165.55040562026323, -181.50738577913478), (87.10029296945048, 94.00130464716484), (-144.2667141507178, 100.20781907880284), (37.04662906737899, -100.05057514731969), (68.9441618959537, -85.59797615270958), (-23.445811604267703, 200.54003595112874), (-91.82840571737995, 178.1689935729605), (99.08448276537784, 137.37041718843514), (33.440258244902, 160.00979700381492), (-125.0839481201073, -34.85299285339323), (-105.95723588545795, -59.03639793681063), (-94.10018274932887, 50.33386701876918), (-101.86325102893095, 14.312565556298154), (249.26217322351462, -254.59206899105104), (330.49682245697915, -162.3205011038649)]","[(-150.0, 10.0), (-260.0, -30.0), (190.0, 190.0), (180.0, 90.0), (-50.0, -90.0), (-100.0, -130.0), (-120.0, -50.0), (110.0, 10.0), (130.0, -220.0), (100.0, -130.0), (-270.0, -150.0), (-230.0, 120.0), (70.0, 150.0), (300.0, -10.0), (0.0, -110.0), (200.0, -40.0), (20.0, -200.0), (10.0, 140.0), (-60.0, 90.0), (-110.0, -220.0), (-100.0, 30.0), (100.0, 80.0), (-60.0, 190.0), (-130.0, 130.0), (290.0, -210.0), (50.0, -90.0), (120.0, -70.0)]","[(101.92302983035484, -98.55122194005078), (190.73573074612227, -68.22538835190514), (-18.071461287489498, -114.7594510396614), (-307.9695862319783, -93.79847209634198), (-208.69364808967026, 175.4220982695873), (110.8991015488335, -9.436434352989423), (-53.09161322600387, 104.96075899038601), (296.25208098036484, 47.860098119864546), (44.232720597155634, -180.69013481000866), (118.27061765220415, -110.15585811567676), (-15.110574875155393, 134.508025818423), (-68.63209564766808, -228.98646683826442), (165.55040562026323, -181.50738577913478), (87.10029296945048, 94.00130464716484), (-144.2667141507178, 100.20781907880284), (37.04662906737899, -100.05057514731969), (68.9441618959537, -85.59797615270958), (-23.445811604267703, 200.54003595112874), (-91.82840571737995, 178.1689935729605), (99.08448276537784, 137.37041718843514), (33.440258244902, 160.00979700381492), (-125.0839481201073, -34.85299285339323), (-105.95723588545795, -59.03639793681063), (-94.10018274932887, 50.33386701876918), (-101.86325102893095, 14.312565556298154), (249.26217322351462, -254.59206899105104), (330.49682245697915, -162.3205011038649)]",0.5,tangential,118.11,979.66,12.19,16.77,0.0551,4,,,,,0,0,0,0,,,,,0,21,21,99,,,,,,,,,,,,,,,space,0.14879340026527643,,,,,48,,,,,,,,,,,,,,,,,,,,,,,,,,,467.25728729972616,None,,,,,,,,,2,21,Female,2021_Dec_13_1400,uniform_mix,2021.2.3,59.93762883321603,
c6_mix_ref.xlsx,c6_mix_t.xlsx,c6_mix.xlsx,stims/contrast192.png,,192,3115,0.6,64,"[(120.0, 210.0), (-130.0, -220.0), (40.0, -140.0), (-10.0, 120.0), (-260.0, 60.0), (-180.0, -30.0), (60.0, -90.0), (300.0, 20.0), (300.0, 190.0), (120.0, 20.0), (-80.0, 200.0), (90.0, -200.0), (-300.0, -50.0), (50.0, 150.0), (300.0, -170.0), (-110.0, 110.0), (-150.0, 40.0), (-100.0, -10.0), (-120.0, -130.0), (150.0, 100.0), (70.0, 80.0), (-40.0, -100.0), (-190.0, 200.0), (-240.0, -200.0), (-90.0, 50.0), (210.0, -40.0), (-50.0, 90.0), (-110.0, -60.0), (100.0, -50.0), (10.0, -100.0), (-20.0, -210.0), (140.0, -120.0), (-81.26688622565442, -6.6914684284153925), (94.01582908360139, 18.337018457408256), (-89.61367382062383, -50.18286885119814), (-26.46494303551936, -81.97518926033997), (85.79987487272436, -170.36751976669342), (-255.85158800172678, -34.00031192180532), (129.70847365050602, 76.75323834647261), (10.245035823508356, -87.55764409292976), (-16.263793925496863, -233.52036193608137), (-260.79880582858664, -248.12496867293368), (168.12575092528024, -126.35209103033958), (-132.37421891735036, 123.61214516847076), (-64.67149706885364, 100.54956551639314), (60.67049682224118, 169.21096030597832), (-111.40903898319942, 56.1626402330207), (334.53734029243793, 206.19812773852635), (-159.97558635554384, 173.41510643708062), (-228.15389483670467, 236.8554237431944), (-129.38751713472962, 23.002111202739318), (-176.8054468458543, 49.831301677726536), (81.78729007350334, -42.09690221120326), (119.0717023937764, -63.17032893520546), (243.33970927187207, -146.76969318954355), (327.9799505989277, -204.708502220156), (-98.31919877528681, -122.29601387994701), (-136.43013543923865, -140.3117924719355), (181.4241382072592, -26.836196013614), (238.67199378643699, -33.52364997637904), (58.30065963585789, 76.4366912003023), (86.88121931945437, 97.20273385389473), (-78.26061955550045, 170.34727452658592), (-102.78095636503997, 226.42356037929522)]","[(120.0, 210.0), (-130.0, -220.0), (40.0, -140.0), (-10.0, 120.0), (-260.0, 60.0), (-180.0, -30.0), (60.0, -90.0), (300.0, 20.0), (300.0, 190.0), (120.0, 20.0), (-80.0, 200.0), (90.0, -200.0), (-300.0, -50.0), (50.0, 150.0), (300.0, -170.0), (-110.0, 110.0), (-150.0, 40.0), (-100.0, -10.0), (-120.0, -130.0), (150.0, 100.0), (70.0, 80.0), (-40.0, -100.0), (-190.0, 200.0), (-240.0, -200.0), (-90.0, 50.0), (210.0, -40.0), (-50.0, 90.0), (-110.0, -60.0), (100.0, -50.0), (10.0, -100.0), (-20.0, -210.0), (140.0, -120.0)]","[(-81.26688622565442, -6.6914684284153925), (94.01582908360139, 18.337018457408256), (-89.61367382062383, -50.18286885119814), (-26.46494303551936, -81.97518926033997), (85.79987487272436, -170.36751976669342), (-255.85158800172678, -34.00031192180532), (129.70847365050602, 76.75323834647261), (10.245035823508356, -87.55764409292976), (-16.263793925496863, -233.52036193608137), (-260.79880582858664, -248.12496867293368), (168.12575092528024, -126.35209103033958), (-132.37421891735036, 123.61214516847076), (-64.67149706885364, 100.54956551639314), (60.67049682224118, 169.21096030597832), (-111.40903898319942, 56.1626402330207), (334.53734029243793, 206.19812773852635), (-159.97558635554384, 173.41510643708062), (-228.15389483670467, 236.8554237431944), (-129.38751713472962, 23.002111202739318), (-176.8054468458543, 49.831301677726536), (81.78729007350334, -42.09690221120326), (119.0717023937764, -63.17032893520546), (243.33970927187207, -146.76969318954355), (327.9799505989277, -204.708502220156), (-98.31919877528681, -122.29601387994701), (-136.43013543923865, -140.3117924719355), (181.4241382072592, -26.836196013614), (238.67199378643699, -33.52364997637904), (58.30065963585789, 76.4366912003023), (86.88121931945437, 97.20273385389473), (-78.26061955550045, 170.34727452658592), (-102.78095636503997, 226.42356037929522)]",0.5,radial,134.99,1162.94,12.41,17.28,0.055,4,,,,,0,0,0,0,,,,,0,22,22,47,,,,,,,,,,,,,,,space,0.12008300004526973,,,,,78,,,,,,,,,,,,,,,,,,,,,,,,,,,468.7774554998614,None,,,,,,,,,2,21,Female,2021_Dec_13_1400,uniform_mix,2021.2.3,59.93762883321603,
c6_mix_ref.xlsx,c6_mix_t.xlsx,c6_mix.xlsx,stims/contrast176.png,,176,4382,0.6,56,"[(170.0, -10.0), (-180.0, -130.0), (20.0, 130.0), (-80.0, -180.0), (140.0, 60.0), (100.0, 20.0), (-290.0, 0.0), (-70.0, -110.0), (-170.0, -30.0), (90.0, 100.0), (130.0, -70.0), (-20.0, -110.0), (-200.0, 70.0), (-100.0, 110.0), (-120.0, 40.0), (30.0, -170.0), (130.0, 220.0), (250.0, -70.0), (250.0, 220.0), (80.0, -60.0), (180.0, -140.0), (250.0, 100.0), (-40.0, 110.0), (-240.0, 210.0), (-300.0, -160.0), (-50.0, 200.0), (70.0, -110.0), (-100.0, -40.0), (-179.3461328798319, 54.62347261572805), (65.6878819350255, -43.221903325802515), (-37.38280743987859, 163.01871712556627), (220.72229927116496, 176.72138109067672), (-89.71317206592525, 98.28398171727524), (200.70560451852612, 77.26157896304402), (-259.2239890870476, -112.4965594944826), (-53.45687601874606, 133.42749703373863), (-75.6750664395698, -134.11344355214592), (83.80886770042908, -126.54571426832453), (38.14791417536267, -201.62639273270696), (-186.26859629382471, -43.366392897789794), (215.46166342000248, -151.03137745962187), (153.17344409584246, -88.69187278393468), (-82.6003393948385, -34.787402798527935), (-123.28817999860897, -50.02168060684354), (-14.597408675200711, -88.4747204270499), (-19.259258240776163, -130.3643144124092), (207.94620948431336, -61.48191823306283), (284.2988539518731, -87.8449695824848), (-220.11839372076662, 177.1755420014838), (-286.12310377907136, 245.4411691389988), (-98.8774860718824, 32.95562102821697), (-143.72796835829482, 51.017948259327966), (77.1821879097688, 87.32897620918371), (109.79927693555975, 108.1658514087936), (118.71329251151006, 190.6326599982648), (145.06918369738767, 260.2040509285614)]","[(170.0, -10.0), (-180.0, -130.0), (20.0, 130.0), (-80.0, -180.0), (140.0, 60.0), (100.0, 20.0), (-290.0, 0.0), (-70.0, -110.0), (-170.0, -30.0), (90.0, 100.0), (130.0, -70.0), (-20.0, -110.0), (-200.0, 70.0), (-100.0, 110.0), (-120.0, 40.0), (30.0, -170.0), (130.0, 220.0), (250.0, -70.0), (250.0, 220.0), (80.0, -60.0), (180.0, -140.0), (250.0, 100.0), (-40.0, 110.0), (-240.0, 210.0), (-300.0, -160.0), (-50.0, 200.0), (70.0, -110.0), (-100.0, -40.0)]","[(-179.3461328798319, 54.62347261572805), (65.6878819350255, -43.221903325802515), (-37.38280743987859, 163.01871712556627), (220.72229927116496, 176.72138109067672), (-89.71317206592525, 98.28398171727524), (200.70560451852612, 77.26157896304402), (-259.2239890870476, -112.4965594944826), (-53.45687601874606, 133.42749703373863), (-75.6750664395698, -134.11344355214592), (83.80886770042908, -126.54571426832453), (38.14791417536267, -201.62639273270696), (-186.26859629382471, -43.366392897789794), (215.46166342000248, -151.03137745962187), (153.17344409584246, -88.69187278393468), (-82.6003393948385, -34.787402798527935), (-123.28817999860897, -50.02168060684354), (-14.597408675200711, -88.4747204270499), (-19.259258240776163, -130.3643144124092), (207.94620948431336, -61.48191823306283), (284.2988539518731, -87.8449695824848), (-220.11839372076662, 177.1755420014838), (-286.12310377907136, 245.4411691389988), (-98.8774860718824, 32.95562102821697), (-143.72796835829482, 51.017948259327966), (77.1821879097688, 87.32897620918371), (109.79927693555975, 108.1658514087936), (118.71329251151006, 190.6326599982648), (145.06918369738767, 260.2040509285614)]",0.5,radial,122.89,1018.07,12.37,17.04,0.055,4,,,,,0,0,0,0,,,,,0,23,23,31,,,,,,,,,,,,,,,space,0.13236310007050633,,,,,44,,,,,,,,,,,,,,,,,,,,,,,,,,,470.93175330013037,None,,,,,,,,,2,21,Female,2021_Dec_13_1400,uniform_mix,2021.2.3,59.93762883321603,
c6_mix_ref.xlsx,c6_mix_t.xlsx,c6_mix.xlsx,stims/contrast279.png,,279,631,0.6,60,"[(-40.0, -160.0), (-60.0, -90.0), (-260.0, -20.0), (80.0, 60.0), (-140.0, -200.0), (150.0, 100.0), (20.0, -100.0), (-120.0, 40.0), (-280.0, -160.0), (-270.0, 210.0), (100.0, 220.0), (-150.0, -40.0), (170.0, -130.0), (-100.0, -10.0), (250.0, 180.0), (130.0, 30.0), (-70.0, 80.0), (300.0, -220.0), (190.0, 0.0), (100.0, -100.0), (-180.0, 100.0), (-120.0, 190.0), (100.0, -20.0), (60.0, -200.0), (-50.0, 150.0), (280.0, -60.0), (60.0, 130.0), (-10.0, 220.0), (10.0, 110.0), (-120.0, -110.0), (-68.72533104018396, -155.63735296619475), (-77.7459887333383, -83.74575996472343), (-259.39832381660773, 30.24319409941171), (94.81006619388921, 41.39232953834556), (-173.616357512447, -191.7493170501666), (171.92642882460288, 85.28039777902694), (5.554757046137098, -95.23969941006004), (-111.18850414049598, 59.76466025990945), (-316.7892188873926, -135.94451327076308), (-218.48217862674124, 256.1510678226072), (151.5096490872345, 196.06623192240573), (-155.2481687782023, -22.928484287788393), (155.90284024517703, -159.86506020536052), (-107.3049995615563, 0.6043680851443725), (269.17793320577067, 151.55290016128828), (125.05334008391544, 53.00453254363808), (-76.77036353419372, 64.8149803687325), (348.98733279792816, -189.04418136389137), (202.5279071602408, 22.77579709685375), (123.85076368227708, -85.48082035056503), (-203.31486456723354, 58.30285226436382), (-130.97198054875676, 164.91108651871764), (104.10491576816811, -4.077890272944202), (105.65119632179187, -197.36907795578838), (-73.94925731492721, 133.70240362287578), (309.61362477861945, -31.327006931951757), (35.26122079344425, 135.71505871557022), (-37.162775187397756, 236.89452972038507), (-6.9652890061395, 117.9876257729569), (-97.83175131561426, -112.65142252596249)]","[(-40.0, -160.0), (-60.0, -90.0), (-260.0, -20.0), (80.0, 60.0), (-140.0, -200.0), (150.0, 100.0), (20.0, -100.0), (-120.0, 40.0), (-280.0, -160.0), (-270.0, 210.0), (100.0, 220.0), (-150.0, -40.0), (170.0, -130.0), (-100.0, -10.0), (250.0, 180.0), (130.0, 30.0), (-70.0, 80.0), (300.0, -220.0), (190.0, 0.0), (100.0, -100.0), (-180.0, 100.0), (-120.0, 190.0), (100.0, -20.0), (60.0, -200.0), (-50.0, 150.0), (280.0, -60.0), (60.0, 130.0), (-10.0, 220.0), (10.0, 110.0), (-120.0, -110.0)]","[(-68.72533104018396, -155.63735296619475), (-77.7459887333383, -83.74575996472343), (-259.39832381660773, 30.24319409941171), (94.81006619388921, 41.39232953834556), (-173.616357512447, -191.7493170501666), (171.92642882460288, 85.28039777902694), (5.554757046137098, -95.23969941006004), (-111.18850414049598, 59.76466025990945), (-316.7892188873926, -135.94451327076308), (-218.48217862674124, 256.1510678226072), (151.5096490872345, 196.06623192240573), (-155.2481687782023, -22.928484287788393), (155.90284024517703, -159.86506020536052), (-107.3049995615563, 0.6043680851443725), (269.17793320577067, 151.55290016128828), (125.05334008391544, 53.00453254363808), (-76.77036353419372, 64.8149803687325), (348.98733279792816, -189.04418136389137), (202.5279071602408, 22.77579709685375), (123.85076368227708, -85.48082035056503), (-203.31486456723354, 58.30285226436382), (-130.97198054875676, 164.91108651871764), (104.10491576816811, -4.077890272944202), (105.65119632179187, -197.36907795578838), (-73.94925731492721, 133.70240362287578), (309.61362477861945, -31.327006931951757), (35.26122079344425, 135.71505871557022), (-37.162775187397756, 236.89452972038507), (-6.9652890061395, 117.9876257729569), (-97.83175131561426, -112.65142252596249)]",1,tangential,128.68,1090.53,12.69,17.56,0.055,3,,,,,0,0,0,0,,,,,0,24,24,134,,,,,,,,,,,,,,,space,0.0986727001145482,,,,,58,,,,,,,,,,,,,,,,,,,,,,,,,,,472.3831277997233,None,,,,,,,,,2,21,Female,2021_Dec_13_1400,uniform_mix,2021.2.3,59.93762883321603,
c6_mix_ref.xlsx,c6_mix_t.xlsx,c6_mix.xlsx,stims/contrastsub11.png,,11,None,0.6,2,"[(80.0, -120.0), (130.0, -20.0)]",None,None,None,None,None,None,None,None,None,None,,,,,0,0,0,0,,,,,0,25,25,145,,,,,,,,,,,,,,,space,0.19368360005319118,,,,,2,,,,,,,,,,,,,,,,,,,,,,,,,,,474.25919409981,None,,,,,,,,,2,21,Female,2021_Dec_13_1400,uniform_mix,2021.2.3,59.93762883321603,
c6_mix_ref.xlsx,c6_mix_t.xlsx,c6_mix.xlsx,stims/contrast281.png,,281,93,0.6,62,"[(-100.0, 70.0), (-50.0, 90.0), (-60.0, -200.0), (90.0, -100.0), (-200.0, -180.0), (10.0, 170.0), (-100.0, -10.0), (70.0, -160.0), (120.0, -40.0), (-20.0, -140.0), (-290.0, 210.0), (-160.0, 0.0), (90.0, 220.0), (100.0, 30.0), (10.0, 100.0), (-90.0, -130.0), (260.0, 80.0), (230.0, -20.0), (-70.0, 200.0), (60.0, 80.0), (240.0, -200.0), (-300.0, -40.0), (30.0, -110.0), (180.0, -110.0), (-120.0, 140.0), (160.0, 20.0), (-220.0, 60.0), (-90.0, -70.0), (-190.0, -70.0), (300.0, 210.0), (110.0, 120.0), (-83.91630511337328, 81.82978660712985), (-33.60535820173017, 104.1367144947914), (-108.26892457766792, -193.17486384316942), (78.8621792928547, -108.54403352977074), (-212.0926467920633, -135.1565145389124), (29.799227285189772, 164.74961815911502), (-107.07872108525586, 9.442980613387135), (43.43455450846557, -174.47457839659307), (113.1143996317108, -53.02201960155337), (-43.98317066319305, -138.23134972622142), (-255.52119177050835, 265.72393728985423), (-164.69359885118487, 21.310080935688973), (116.21402187163278, 195.4581508671265), (102.44210450699072, 13.1856041459573), (21.245234448074513, 106.97206409349448), (-65.11640135068227, -148.7676345528904), (261.09849976581495, 117.64169355510631), (229.63644201520808, 23.616885355950302), (-92.22492817338991, 199.48637825586627), (40.70226355932522, 91.46903928967622), (281.74659720292453, -144.12826760974502), (-311.7168428343256, -82.74887335355163), (48.67769435470986, -104.08878250107897), (202.2559411520961, -97.81455762869791), (-134.96279975348622, 127.10561879536013), (158.57706352746322, 49.071629496374385), (-211.27639051501458, 29.489275674117096), (-74.59257305944004, -82.66245537332678), (-198.0710256217014, -97.61814737678822), (271.19330157822924, 261.560289122089), (95.1294962207818, 135.50302143307576)]","[(-100.0, 70.0), (-50.0, 90.0), (-60.0, -200.0), (90.0, -100.0), (-200.0, -180.0), (10.0, 170.0), (-100.0, -10.0), (70.0, -160.0), (120.0, -40.0), (-20.0, -140.0), (-290.0, 210.0), (-160.0, 0.0), (90.0, 220.0), (100.0, 30.0), (10.0, 100.0), (-90.0, -130.0), (260.0, 80.0), (230.0, -20.0), (-70.0, 200.0), (60.0, 80.0), (240.0, -200.0), (-300.0, -40.0), (30.0, -110.0), (180.0, -110.0), (-120.0, 140.0), (160.0, 20.0), (-220.0, 60.0), (-90.0, -70.0), (-190.0, -70.0), (300.0, 210.0), (110.0, 120.0)]","[(-83.91630511337328, 81.82978660712985), (-33.60535820173017, 104.1367144947914), (-108.26892457766792, -193.17486384316942), (78.8621792928547, -108.54403352977074), (-212.0926467920633, -135.1565145389124), (29.799227285189772, 164.74961815911502), (-107.07872108525586, 9.442980613387135), (43.43455450846557, -174.47457839659307), (113.1143996317108, -53.02201960155337), (-43.98317066319305, -138.23134972622142), (-255.52119177050835, 265.72393728985423), (-164.69359885118487, 21.310080935688973), (116.21402187163278, 195.4581508671265), (102.44210450699072, 13.1856041459573), (21.245234448074513, 106.97206409349448), (-65.11640135068227, -148.7676345528904), (261.09849976581495, 117.64169355510631), (229.63644201520808, 23.616885355950302), (-92.22492817338991, 199.48637825586627), (40.70226355932522, 91.46903928967622), (281.74659720292453, -144.12826760974502), (-311.7168428343256, -82.74887335355163), (48.67769435470986, -104.08878250107897), (202.2559411520961, -97.81455762869791), (-134.96279975348622, 127.10561879536013), (158.57706352746322, 49.071629496374385), (-211.27639051501458, 29.489275674117096), (-74.59257305944004, -82.66245537332678), (-198.0710256217014, -97.61814737678822), (271.19330157822924, 261.560289122089), (95.1294962207818, 135.50302143307576)]",1,tangential,128.19,1126.88,12.45,17.18,0.055,1,,,,,0,0,0,0,,,,,0,26,26,136,,,,,,,,,,,,,,,space,0.19258489971980453,,,,,89,,,,,,,,,,,,,,,,,,,,,,,,,,,475.81577989971265,None,,,,,,,,,2,21,Female,2021_Dec_13_1400,uniform_mix,2021.2.3,59.93762883321603,
