reference,test_blockOrder,blockOrder,imageFile,num,index,n,winsize,numerosity,allposis,centralposis,extraposis,perceptpairs,protectzonetype,convexhull,occupancyarea,averageeccentricity,averagespacing,density,display_i,p_trials.thisRepN,p_trials.thisTrialN,p_trials.thisN,p_trials.thisIndex,blocks.thisRepN,blocks.thisTrialN,blocks.thisN,blocks.thisIndex,trials_2.thisRepN,trials_2.thisTrialN,trials_2.thisN,trials_2.thisIndex,trials.thisRepN,trials.thisTrialN,trials.thisN,trials.thisIndex,key_resp.keys,key_resp.rt,key_resp_14.keys,key_resp_14.rt,key_resp_15.keys,key_resp_15.rt,key_resp_16.keys,key_resp_16.rt,key_resp_17.keys,key_resp_17.rt,key_resp_18.keys,key_resp_18.rt,key_resp_19.keys,key_resp_19.rt,key_resp_26.keys,key_resp_26.rt,p_img.started,p_img.stopped,text_14.started,text_14.stopped,responseN,key_resp_4.keys,key_resp_4.rt,text_20.started,text_20.stopped,key_resp_20.keys,key_resp_20.rt,key_resp_20.started,key_resp_20.stopped,key_resp_22.keys,key_resp_22.rt,key_resp_5.keys,key_resp_5.rt,image_2.started,image_2.stopped,blank.started,blank.stopped,text_21.started,text_21.stopped,key_resp_7.keys,key_resp_7.rt,key_resp_7.started,key_resp_7.stopped,key_resp_8.keys,key_resp_8.rt,key_resp_23.keys,key_resp_23.rt,image.started,image.stopped,text_31.started,text_31.stopped,text_32.started,text_32.stopped,key_resp_2.keys,key_resp_2.rt,thanksm.started,thanksm.stopped,participant,age,sex,date,expName,psychopyVersion,frameRate,
,,,,,,,,,,,,,,,,,,,,,,,,,,,,,,,,,,,,space,13.220089299604297,,,,,,,,,,,,,,,,,,,,,,,,,,,,,,,,,,,,,,,,,,,,,,,,,,,,,,,,5,21,Female,2021_Dec_14_1001,uniform_mix,2021.2.3,59.88988643904216,
,,,,,,,,,,,,,,,,,,,,,,,,,,,,,,,,,,,,,,space,1.3083657999522984,,,,,,,,,,,,,,,,,,,,,,,,,,,,,,,,,,,,,,,,,,,,,,,,,,,,,,5,21,Female,2021_Dec_14_1001,uniform_mix,2021.2.3,59.88988643904216,
,,,,,,,,,,,,,,,,,,,,,,,,,,,,,,,,,,,,,,,,space,11.635641799774021,,,,,,,,,,,,,,,,,,,,,,,,,,,,,,,,,,,,,,,,,,,,,,,,,,,,5,21,Female,2021_Dec_14_1001,uniform_mix,2021.2.3,59.88988643904216,
,,,,,,,,,,,,,,,,,,,,,,,,,,,,,,,,,,,,,,,,,,space,24.77225019969046,,,,,,,,,,,,,,,,,,,,,,,,,,,,,,,,,,,,,,,,,,,,,,,,,,5,21,Female,2021_Dec_14_1001,uniform_mix,2021.2.3,59.88988643904216,
,,,,,,,,,,,,,,,,,,,,,,,,,,,,,,,,,,,,,,,,,,,,space,11.088159800041467,,,,,,,,,,,,,,,,,,,,,,,,,,,,,,,,,,,,,,,,,,,,,,,,5,21,Female,2021_Dec_14_1001,uniform_mix,2021.2.3,59.88988643904216,
,,,,,,,,,,,,,,,,,,,,,,,,,,,,,,,,,,,,,,,,,,,,,,space,23.67650040006265,,,,,,,,,,,,,,,,,,,,,,,,,,,,,,,,,,,,,,,,,,,,,,5,21,Female,2021_Dec_14_1001,uniform_mix,2021.2.3,59.88988643904216,
,,,,,,,,,,,,,,,,,,,,,,,,,,,,,,,,,,,,,,,,,,,,,,,,space,3.1138949999585748,space,0.46178480004891753,451.73358920030296,451.9047106001526,451.9047106001526,None,,space,21.79610999999568,,,,,,,,,,,,,,,,,,,,,,,,,,,,,,,,,,,5,21,Female,2021_Dec_14_1001,uniform_mix,2021.2.3,59.88988643904216,
,,,,,,,,,,,,,,,,,,,,,,,,,,,,,,,,,,,,,,,,,,,,,,,,,,,,,,,,,,,475.21565530030057,None,space,12.971689299680293,475.21565530030057,None,,,,,,,,,,,,,,,,,,,,,,,,,,,,,5,21,Female,2021_Dec_14_1001,uniform_mix,2021.2.3,59.88988643904216,
c4_mix_ref.xlsx,c4_mix_t.xlsx,c4_mix.xlsx,stims/contrastref5.png,49,,,,,,,,,,,,,,,,,,,,0,0,0,0,0,0,0,4,,,,,,,,,,,,,,,,,,,space,2.793958299793303,,,,,,,,,,,,,,n,4.593929800204933,space,3.0655815000645816,499.96306780027226,500.1316543999128,500.1316543999128,None,500.39239430008456,None,space,2.4997049001976848,500.39239430008456,None,space,4.4387440998107195,,,,,,,,,,,,,5,21,Female,2021_Dec_14_1001,uniform_mix,2021.2.3,59.88988643904216,
c4_mix_ref.xlsx,c4_mix_t.xlsx,c4_mix.xlsx,stims/contrastref4.png,44,,,,,,,,,,,,,,,,,,,,0,0,0,0,0,1,1,3,,,,,,,,,,,,,,,,,,,space,1.2880381997674704,,,,,,,,,,,,,,n,0.8915452999062836,space,1.3448826996609569,512.0935698999092,512.278713000007,512.278713000007,None,512.5201639002189,None,space,1.4130724999122322,512.5201639002189,None,space,2.102786000352353,,,,,,,,,,,,,5,21,Female,2021_Dec_14_1001,uniform_mix,2021.2.3,59.88988643904216,
c4_mix_ref.xlsx,c4_mix_t.xlsx,c4_mix.xlsx,stims/contrastref3.png,39,,,,,,,,,,,,,,,,,,,,0,0,0,0,0,2,2,2,,,,,,,,,,,,,,,,,,,space,0.9853651002049446,,,,,,,,,,,,,,n,1.6362536996603012,space,0.9674920998513699,520.8114599999972,520.9853119002655,520.9853119002655,None,521.2381163001992,None,space,0.5088702999055386,521.2381163001992,None,space,1.4951728996820748,,,,,,,,,,,,,5,21,Female,2021_Dec_14_1001,uniform_mix,2021.2.3,59.88988643904216,
c4_mix_ref.xlsx,c4_mix_t.xlsx,c4_mix.xlsx,stims/contrastref1.png,29,,,,,,,,,,,,,,,,,,,,0,0,0,0,0,3,3,0,,,,,,,,,,,,,,,,,,,space,1.1662844000384212,,,,,,,,,,,,,,n,0.499212299939245,space,1.3298414000310004,527.458620800171,527.6340760001913,527.6340760001913,None,527.886185400188,None,space,0.614682899788022,527.886185400188,None,space,1.172269900329411,,,,,,,,,,,,,5,21,Female,2021_Dec_14_1001,uniform_mix,2021.2.3,59.88988643904216,
c4_mix_ref.xlsx,c4_mix_t.xlsx,c4_mix.xlsx,stims/contrastref2.png,34,,,,,,,,,,,,,,,,,,,,0,0,0,0,0,4,4,1,,,,,,,,,,,,,,,,,,,space,0.9513571001589298,,,,,,,,,,,,,,n,0.130736299790442,space,0.8947354000993073,532.8193008000962,532.9972363002598,532.9972363002598,None,533.2479230999015,None,space,0.7090428997762501,533.2479230999015,None,space,1.2863424997776747,,,,,,,,,,,,,5,21,Female,2021_Dec_14_1001,uniform_mix,2021.2.3,59.88988643904216,
c4_mix_ref.xlsx,c4_mix_t.xlsx,c4_mix.xlsx,stims/contrast87.png,,87,1522,0.4,40,"[(100.0, 30.0), (-200.0, -70.0), (-50.0, 100.0), (200.0, -120.0), (-170.0, 20.0), (0.0, 140.0), (-10.0, -130.0), (-170.0, 120.0), (-60.0, -100.0), (40.0, 110.0), (110.0, 130.0), (110.0, -50.0), (170.0, 50.0), (170.0, -40.0), (-80.0, 60.0), (200.0, 140.0), (40.0, -110.0), (100.0, -110.0), (-110.0, -10.0), (-120.0, -90.0), (22.910757029003662, -124.49815278868626), (61.60830700798131, -104.63812452077838), (169.45365402789872, 13.759699740160585), (173.87016570079706, 76.90700326601748), (136.18564279839455, 109.81260554952054), (100.01427867032159, 154.27878057063432), (78.92089825963951, -112.63564829517217), (127.09721752538749, -93.23687203742492), (99.7623767499516, -68.1265151748061), (123.51453605381968, -25.86521203883794), (-133.47510714605514, -67.8448097660484), (-101.3725201780816, -117.06997682448078), (154.87881755235367, -78.17946919724412), (182.0802699259883, -0.38688403451877207), (-112.67272156696737, 13.403263111101083), (-104.28606848549316, -26.163083132407536), (-69.47965822916836, 71.0317073184296), (-86.1837905550014, 46.111221633647546), (232.03720084284242, 113.05020505067048), (173.44982365733344, 187.56219201576175)]","[(100.0, 30.0), (-200.0, -70.0), (-50.0, 100.0), (200.0, -120.0), (-170.0, 20.0), (0.0, 140.0), (-10.0, -130.0), (-170.0, 120.0), (-60.0, -100.0), (40.0, 110.0), (110.0, 130.0), (110.0, -50.0), (170.0, 50.0), (170.0, -40.0), (-80.0, 60.0), (200.0, 140.0), (40.0, -110.0), (100.0, -110.0), (-110.0, -10.0), (-120.0, -90.0)]","[(22.910757029003662, -124.49815278868626), (61.60830700798131, -104.63812452077838), (169.45365402789872, 13.759699740160585), (173.87016570079706, 76.90700326601748), (136.18564279839455, 109.81260554952054), (100.01427867032159, 154.27878057063432), (78.92089825963951, -112.63564829517217), (127.09721752538749, -93.23687203742492), (99.7623767499516, -68.1265151748061), (123.51453605381968, -25.86521203883794), (-133.47510714605514, -67.8448097660484), (-101.3725201780816, -117.06997682448078), (154.87881755235367, -78.17946919724412), (182.0802699259883, -0.38688403451877207), (-112.67272156696737, 13.403263111101083), (-104.28606848549316, -26.163083132407536), (-69.47965822916836, 71.0317073184296), (-86.1837905550014, 46.111221633647546), (232.03720084284242, 113.05020505067048), (173.44982365733344, 187.56219201576175)]",0,tangential,84.05,467.91,10.08,13.18,0.0855,3,,,,,0,0,0,0,,,,,0,0,0,86,,,,,,,,,,,,,,,space,1.3689482999034226,,,,,25,,,,,,,,,,,,,,,,,,,,,,,,,space,19.97955260006711,556.9579055001959,None,,,,,,,,,5,21,Female,2021_Dec_14_1001,uniform_mix,2021.2.3,59.88988643904216,
c4_mix_ref.xlsx,c4_mix_t.xlsx,c4_mix.xlsx,stims/contrast19.png,,19,2476,0.4,42,"[(-200.0, 0.0), (140.0, 40.0), (70.0, 140.0), (-200.0, -100.0), (-80.0, 60.0), (-60.0, 130.0), (140.0, -50.0), (-120.0, -120.0), (100.0, -10.0), (90.0, 60.0), (180.0, 130.0), (10.0, 120.0), (-140.0, 110.0), (-130.0, 30.0), (200.0, -140.0), (-40.0, -120.0), (80.0, -60.0), (-120.0, -50.0), (50.0, -100.0), (110.0, -120.0), (200.0, 0.0), (231.86219948268325, 8.244771422283934), (161.37980509598916, -129.022705368374), (239.49041157526864, -145.68730089156122), (-100.23762036493066, -39.459309878789526), (-145.84041599975612, -56.58078833116845), (88.1901140709982, -97.10074840184882), (120.9529691469239, -143.63985208218088), (8.88787319927021, 102.59766217224231), (12.697713349212847, 144.5459745905068), (141.86357813073724, 122.2234285400229), (196.79944724061156, 156.53266933497108), (-130.2038110183545, 92.14470430346441), (-168.95847901689768, 115.98257831493478), (-26.727211568418447, -110.23727658537369), (-47.5613289491089, -138.4592822403656), (37.80910906572128, -81.47029706070174), (60.45756089732427, -116.17841483218135), (-114.3976951434887, 31.6875040141276), (-143.78185712062105, 43.77360072315147), (59.528250202040816, -47.456058593488876), (92.06739852263003, -67.52496922408059)]","[(-200.0, 0.0), (140.0, 40.0), (70.0, 140.0), (-200.0, -100.0), (-80.0, 60.0), (-60.0, 130.0), (140.0, -50.0), (-120.0, -120.0), (100.0, -10.0), (90.0, 60.0), (180.0, 130.0), (10.0, 120.0), (-140.0, 110.0), (-130.0, 30.0), (200.0, -140.0), (-40.0, -120.0), (80.0, -60.0), (-120.0, -50.0), (50.0, -100.0), (110.0, -120.0), (200.0, 0.0)]","[(231.86219948268325, 8.244771422283934), (161.37980509598916, -129.022705368374), (239.49041157526864, -145.68730089156122), (-100.23762036493066, -39.459309878789526), (-145.84041599975612, -56.58078833116845), (88.1901140709982, -97.10074840184882), (120.9529691469239, -143.63985208218088), (8.88787319927021, 102.59766217224231), (12.697713349212847, 144.5459745905068), (141.86357813073724, 122.2234285400229), (196.79944724061156, 156.53266933497108), (-130.2038110183545, 92.14470430346441), (-168.95847901689768, 115.98257831493478), (-26.727211568418447, -110.23727658537369), (-47.5613289491089, -138.4592822403656), (37.80910906572128, -81.47029706070174), (60.45756089732427, -116.17841483218135), (-114.3976951434887, 31.6875040141276), (-143.78185712062105, 43.77360072315147), (59.528250202040816, -47.456058593488876), (92.06739852263003, -67.52496922408059)]",0,radial,87.65,490.99,10.16,13.64,0.0855,3,,,,,0,0,0,0,,,,,0,1,1,18,,,,,,,,,,,,,,,space,1.4873413001187146,,,,,39,,,,,,,,,,,,,,,,,,,,,,,,,,,563.1755734002218,None,,,,,,,,,5,21,Female,2021_Dec_14_1001,uniform_mix,2021.2.3,59.88988643904216,
c4_mix_ref.xlsx,c4_mix_t.xlsx,c4_mix.xlsx,stims/contrast49.png,,49,3744,0.4,34,"[(-140.0, -120.0), (-110.0, 10.0), (180.0, -140.0), (120.0, -40.0), (80.0, -110.0), (-110.0, 70.0), (180.0, 30.0), (130.0, 80.0), (50.0, 120.0), (-140.0, 130.0), (-20.0, 130.0), (-60.0, 90.0), (-90.0, -50.0), (-70.0, -110.0), (100.0, 10.0), (-180.0, -10.0), (0.0, -110.0), (-118.5604330257926, -106.86531887006586), (-92.34132651481664, 6.22612774453441), (140.5706315738071, -117.79131751761263), (106.2346792881504, -35.851579535249634), (71.3918611749995, -91.93541731238473), (-97.55423278751985, 59.873788287448974), (161.7888986364388, 14.883337109930899), (116.31209006502709, 64.47922208665159), (52.8730300592111, 144.54634014820743), (-148.67653962846111, 158.25621761687518), (-18.22481661622018, 143.57331304912591), (-65.53837979439677, 101.57623743649073), (-112.57451862584875, -61.934429170639525), (-83.30228211342339, -137.32105307823437), (113.9935922302382, 17.61148252149432), (-204.41646822233184, -1.2610070855801716), (-7.408797455113959, -122.32148600742055)]","[(-140.0, -120.0), (-110.0, 10.0), (180.0, -140.0), (120.0, -40.0), (80.0, -110.0), (-110.0, 70.0), (180.0, 30.0), (130.0, 80.0), (50.0, 120.0), (-140.0, 130.0), (-20.0, 130.0), (-60.0, 90.0), (-90.0, -50.0), (-70.0, -110.0), (100.0, 10.0), (-180.0, -10.0), (0.0, -110.0)]","[(-118.5604330257926, -106.86531887006586), (-92.34132651481664, 6.22612774453441), (140.5706315738071, -117.79131751761263), (106.2346792881504, -35.851579535249634), (71.3918611749995, -91.93541731238473), (-97.55423278751985, 59.873788287448974), (161.7888986364388, 14.883337109930899), (116.31209006502709, 64.47922208665159), (52.8730300592111, 144.54634014820743), (-148.67653962846111, 158.25621761687518), (-18.22481661622018, 143.57331304912591), (-65.53837979439677, 101.57623743649073), (-112.57451862584875, -61.934429170639525), (-83.30228211342339, -137.32105307823437), (113.9935922302382, 17.61148252149432), (-204.41646822233184, -1.2610070855801716), (-7.408797455113959, -122.32148600742055)]",1,radial,76.57,402.65,9.39,12.61,0.0844,1,,,,,0,0,0,0,,,,,0,2,2,48,,,,,,,,,,,,,,,space,0.8730282997712493,,,,,30,,,,,,,,,,,,,,,,,,,,,,,,,,,569.190298799891,None,,,,,,,,,5,21,Female,2021_Dec_14_1001,uniform_mix,2021.2.3,59.88988643904216,
c4_mix_ref.xlsx,c4_mix_t.xlsx,c4_mix.xlsx,stims/contrast134.png,,134,1320,0.4,40,"[(-90.0, -50.0), (-70.0, -140.0), (120.0, 40.0), (200.0, -90.0), (-180.0, 60.0), (-160.0, -10.0), (100.0, 100.0), (100.0, -10.0), (-160.0, -110.0), (20.0, -140.0), (190.0, 130.0), (20.0, 110.0), (-170.0, 140.0), (140.0, -40.0), (190.0, 30.0), (50.0, -90.0), (100.0, -100.0), (-100.0, 50.0), (-20.0, -100.0), (-60.0, 110.0), (-103.05441582706598, -29.18875171115438), (-91.11378019015197, -134.04881323685203), (129.32758971292444, 18.71181774203788), (190.9535581773957, -125.80857347786883), (-176.75647932883, 99.89259625957786), (-148.53918511607992, 6.9161107345618404), (119.50367352476641, 98.15055006250242), (105.74831615659485, -26.945559896162138), (-183.33718758544063, -94.59602410822419), (6.454619813459459, -148.05667526988162), (167.18937449623883, 165.88800172559695), (2.0388574637097037, 116.56119895564014), (-196.10891681242254, 101.48761603739405), (139.3196841644646, -16.738743238164687), (174.279025992402, 59.45973562369582), (66.76574080679892, -80.93326196180523), (115.98817585842993, -94.71904968710615), (-107.75421600149869, 35.901576663919755), (-3.418798985960791, -106.90302269075472), (-87.5439764659555, 99.31283535848681)]","[(-90.0, -50.0), (-70.0, -140.0), (120.0, 40.0), (200.0, -90.0), (-180.0, 60.0), (-160.0, -10.0), (100.0, 100.0), (100.0, -10.0), (-160.0, -110.0), (20.0, -140.0), (190.0, 130.0), (20.0, 110.0), (-170.0, 140.0), (140.0, -40.0), (190.0, 30.0), (50.0, -90.0), (100.0, -100.0), (-100.0, 50.0), (-20.0, -100.0), (-60.0, 110.0)]","[(-103.05441582706598, -29.18875171115438), (-91.11378019015197, -134.04881323685203), (129.32758971292444, 18.71181774203788), (190.9535581773957, -125.80857347786883), (-176.75647932883, 99.89259625957786), (-148.53918511607992, 6.9161107345618404), (119.50367352476641, 98.15055006250242), (105.74831615659485, -26.945559896162138), (-183.33718758544063, -94.59602410822419), (6.454619813459459, -148.05667526988162), (167.18937449623883, 165.88800172559695), (2.0388574637097037, 116.56119895564014), (-196.10891681242254, 101.48761603739405), (139.3196841644646, -16.738743238164687), (174.279025992402, 59.45973562369582), (66.76574080679892, -80.93326196180523), (115.98817585842993, -94.71904968710615), (-107.75421600149869, 35.901576663919755), (-3.418798985960791, -106.90302269075472), (-87.5439764659555, 99.31283535848681)]",1,tangential,82.88,467.68,10.01,13.43,0.0855,2,,,,,0,0,0,0,,,,,0,3,3,133,,,,,,,,,,,,,,,space,0.6098265000618994,,,,,32,,,,,,,,,,,,,,,,,,,,,,,,,,,582.3309725001454,None,,,,,,,,,5,21,Female,2021_Dec_14_1001,uniform_mix,2021.2.3,59.88988643904216,
c4_mix_ref.xlsx,c4_mix_t.xlsx,c4_mix.xlsx,stims/contrast6.png,,6,2786,0.4,36,"[(-140.0, -130.0), (-80.0, 100.0), (70.0, -140.0), (-180.0, 90.0), (90.0, -50.0), (-200.0, -60.0), (-170.0, 20.0), (-90.0, -70.0), (50.0, 130.0), (-30.0, -120.0), (140.0, 0.0), (160.0, -120.0), (70.0, 80.0), (160.0, 60.0), (0.0, 110.0), (-100.0, 10.0), (10.0, -100.0), (160.0, 140.0), (127.97957305017708, -108.39843477932735), (178.10644497527798, -143.2108056919103), (123.18178912668402, -7.767651230023441), (164.49203582823762, -3.2179488735246693), (4.194386958137562, -85.28383704139054), (6.0027776457331505, -118.82987114849257), (140.36564518724595, 42.70978907196772), (180.38028988284628, 77.15790692160256), (53.69919811794543, 62.30204926500455), (79.82877067840371, 88.14745362746511), (9.023679042281131, 95.44512133855739), (-2.1655915284069494, 125.98732647670923), (-90.96764096114119, 0.9298044781782429), (-111.52052202970091, 9.765903731159675), (154.7578371296027, 110.88784771420373), (175.8432214821559, 174.11836005777454), (-24.99822920133172, -93.34968012252637), (-34.27070891127949, -142.3991651207643)]","[(-140.0, -130.0), (-80.0, 100.0), (70.0, -140.0), (-180.0, 90.0), (90.0, -50.0), (-200.0, -60.0), (-170.0, 20.0), (-90.0, -70.0), (50.0, 130.0), (-30.0, -120.0), (140.0, 0.0), (160.0, -120.0), (70.0, 80.0), (160.0, 60.0), (0.0, 110.0), (-100.0, 10.0), (10.0, -100.0), (160.0, 140.0)]","[(127.97957305017708, -108.39843477932735), (178.10644497527798, -143.2108056919103), (123.18178912668402, -7.767651230023441), (164.49203582823762, -3.2179488735246693), (4.194386958137562, -85.28383704139054), (6.0027776457331505, -118.82987114849257), (140.36564518724595, 42.70978907196772), (180.38028988284628, 77.15790692160256), (53.69919811794543, 62.30204926500455), (79.82877067840371, 88.14745362746511), (9.023679042281131, 95.44512133855739), (-2.1655915284069494, 125.98732647670923), (-90.96764096114119, 0.9298044781782429), (-111.52052202970091, 9.765903731159675), (154.7578371296027, 110.88784771420373), (175.8432214821559, 174.11836005777454), (-24.99822920133172, -93.34968012252637), (-34.27070891127949, -142.3991651207643)]",0,radial,81.51,421.31,9.48,12.64,0.0854,2,,,,,0,0,0,0,,,,,0,4,4,5,,,,,,,,,,,,,,,space,0.5553231001831591,,,,,45,,,,,,,,,,,,,,,,,,,,,,,,,,,586.1593802999705,None,,,,,,,,,5,21,Female,2021_Dec_14_1001,uniform_mix,2021.2.3,59.88988643904216,
c4_mix_ref.xlsx,c4_mix_t.xlsx,c4_mix.xlsx,stims/contrast102.png,,102,2894,0.4,36,"[(110.0, -10.0), (190.0, 40.0), (40.0, 110.0), (10.0, -100.0), (-100.0, -50.0), (-20.0, 100.0), (110.0, 140.0), (60.0, -110.0), (-170.0, 10.0), (110.0, -70.0), (-200.0, -60.0), (130.0, 80.0), (-170.0, 100.0), (-70.0, 130.0), (190.0, -110.0), (-90.0, 70.0), (-80.0, -120.0), (-100.0, 20.0), (-179.35065576791703, 30.56998553087456), (-74.22469477699067, 76.91587756744323), (144.14481065086713, 63.386834413390375), (92.98646814766869, -76.66439948810834), (-156.56376476642845, 117.6054586048553), (85.51905964513824, 169.518175393015), (-93.59468074618262, 131.01217786795672), (-92.55030750632926, -66.28095308800977), (-189.60698407091633, -100.9969503668035), (81.57383049143228, -104.22783877340314), (-5.19887841154933, 95.68907257760573), (-37.51086110771324, 99.21036511879109), (163.0385167130167, -136.680333308925), (194.93912390016706, -84.18888925864863), (-92.25023723716072, 38.07705345010328), (-95.7064130147364, 2.8699523091580375), (-94.92731898921241, -103.61926017105014), (-63.68093828661165, -139.41454612076058)]","[(110.0, -10.0), (190.0, 40.0), (40.0, 110.0), (10.0, -100.0), (-100.0, -50.0), (-20.0, 100.0), (110.0, 140.0), (60.0, -110.0), (-170.0, 10.0), (110.0, -70.0), (-200.0, -60.0), (130.0, 80.0), (-170.0, 100.0), (-70.0, 130.0), (190.0, -110.0), (-90.0, 70.0), (-80.0, -120.0), (-100.0, 20.0)]","[(-179.35065576791703, 30.56998553087456), (-74.22469477699067, 76.91587756744323), (144.14481065086713, 63.386834413390375), (92.98646814766869, -76.66439948810834), (-156.56376476642845, 117.6054586048553), (85.51905964513824, 169.518175393015), (-93.59468074618262, 131.01217786795672), (-92.55030750632926, -66.28095308800977), (-189.60698407091633, -100.9969503668035), (81.57383049143228, -104.22783877340314), (-5.19887841154933, 95.68907257760573), (-37.51086110771324, 99.21036511879109), (163.0385167130167, -136.680333308925), (194.93912390016706, -84.18888925864863), (-92.25023723716072, 38.07705345010328), (-95.7064130147364, 2.8699523091580375), (-94.92731898921241, -103.61926017105014), (-63.68093828661165, -139.41454612076058)]",0.5,tangential,77.76,423.05,9.67,12.96,0.0851,2,,,,,0,0,0,0,,,,,0,5,5,101,,,,,,,,,,,,,,,space,0.5815564999356866,,,,,44,,,,,,,,,,,,,,,,,,,,,,,,,,,590.2861143001355,None,,,,,,,,,5,21,Female,2021_Dec_14_1001,uniform_mix,2021.2.3,59.88988643904216,
c4_mix_ref.xlsx,c4_mix_t.xlsx,c4_mix.xlsx,stims/contrast52.png,,52,1336,0.4,34,"[(200.0, 80.0), (110.0, -40.0), (200.0, -80.0), (80.0, 110.0), (-150.0, 130.0), (110.0, 30.0), (20.0, 110.0), (-80.0, -90.0), (90.0, -110.0), (160.0, 0.0), (-90.0, 50.0), (-190.0, 40.0), (-50.0, -130.0), (-150.0, -80.0), (20.0, -120.0), (-110.0, -20.0), (-40.0, 110.0), (153.0153085911134, 61.946245719679865), (96.43311756914291, -27.826691861515062), (159.23254724549173, -75.30638424397404), (79.4484473409823, 89.73673570689103), (-134.52217742180872, 97.60817353539419), (90.72140507898004, 26.995960715761555), (9.382772132722646, 100.12377094856048), (-67.75288384627096, -73.62561034656846), (114.56938208261651, -127.52295222425474), (193.0881231888459, 8.347279155919562), (-111.56888368198325, 57.19159828857748), (-220.15337830008647, 39.872853731170174), (-64.2140275033412, -146.6821941295748), (-176.085926200008, -91.5174876297186), (22.0966636673736, -132.9593020476342), (-128.40833322717478, -15.860079046432034), (-53.27544907036243, 122.07084482422164)]","[(200.0, 80.0), (110.0, -40.0), (200.0, -80.0), (80.0, 110.0), (-150.0, 130.0), (110.0, 30.0), (20.0, 110.0), (-80.0, -90.0), (90.0, -110.0), (160.0, 0.0), (-90.0, 50.0), (-190.0, 40.0), (-50.0, -130.0), (-150.0, -80.0), (20.0, -120.0), (-110.0, -20.0), (-40.0, 110.0)]","[(153.0153085911134, 61.946245719679865), (96.43311756914291, -27.826691861515062), (159.23254724549173, -75.30638424397404), (79.4484473409823, 89.73673570689103), (-134.52217742180872, 97.60817353539419), (90.72140507898004, 26.995960715761555), (9.382772132722646, 100.12377094856048), (-67.75288384627096, -73.62561034656846), (114.56938208261651, -127.52295222425474), (193.0881231888459, 8.347279155919562), (-111.56888368198325, 57.19159828857748), (-220.15337830008647, 39.872853731170174), (-64.2140275033412, -146.6821941295748), (-176.085926200008, -91.5174876297186), (22.0966636673736, -132.9593020476342), (-128.40833322717478, -15.860079046432034), (-53.27544907036243, 122.07084482422164)]",1,radial,76.55,397.69,9.59,12.9,0.0855,4,,,,,0,0,0,0,,,,,0,6,6,51,,,,,,,,,,,,,,,space,0.5669271000660956,,,,,29,,,,,,,,,,,,,,,,,,,,,,,,,,,595.8109797001816,None,,,,,,,,,5,21,Female,2021_Dec_14_1001,uniform_mix,2021.2.3,59.88988643904216,
c4_mix_ref.xlsx,c4_mix_t.xlsx,c4_mix.xlsx,stims/contrast135.png,,135,1787,0.4,40,"[(100.0, -140.0), (200.0, -50.0), (-130.0, 110.0), (-200.0, 60.0), (-30.0, -140.0), (120.0, -20.0), (190.0, 90.0), (90.0, 110.0), (-30.0, 100.0), (10.0, 140.0), (-160.0, -130.0), (-90.0, -50.0), (30.0, -110.0), (-190.0, -40.0), (-100.0, 60.0), (80.0, -60.0), (-50.0, -90.0), (100.0, 20.0), (200.0, -140.0), (-130.0, -10.0), (89.50128352288627, -160.39649083302314), (196.8495060907623, -78.50092500447437), (-111.47298119680453, 138.07349407163878), (-197.05535856733053, 98.6893018010924), (-60.92352168137303, -134.16493697745327), (123.7348353218978, -44.02247563469204), (216.20078573847613, 61.98484300547949), (101.16935757388791, 98.41633962137567), (-17.893087432272452, 99.88999564631251), (25.617499640563807, 136.03394968975897), (-129.8478148730881, -156.9767060414943), (-78.43620372961797, -59.296913602640984), (46.64101477250908, -105.9833210736073), (-185.00503866999858, -84.59976327501232), (-113.43793280156163, 54.45431721254465), (95.05875248124272, -42.39371351956943), (-39.68730126217207, -93.14026911201486), (102.35292909350258, 33.770775459386996), (201.17917456261478, -110.30909338866627), (-127.88342183767762, -24.259664327109448)]","[(100.0, -140.0), (200.0, -50.0), (-130.0, 110.0), (-200.0, 60.0), (-30.0, -140.0), (120.0, -20.0), (190.0, 90.0), (90.0, 110.0), (-30.0, 100.0), (10.0, 140.0), (-160.0, -130.0), (-90.0, -50.0), (30.0, -110.0), (-190.0, -40.0), (-100.0, 60.0), (80.0, -60.0), (-50.0, -90.0), (100.0, 20.0), (200.0, -140.0), (-130.0, -10.0)]","[(89.50128352288627, -160.39649083302314), (196.8495060907623, -78.50092500447437), (-111.47298119680453, 138.07349407163878), (-197.05535856733053, 98.6893018010924), (-60.92352168137303, -134.16493697745327), (123.7348353218978, -44.02247563469204), (216.20078573847613, 61.98484300547949), (101.16935757388791, 98.41633962137567), (-17.893087432272452, 99.88999564631251), (25.617499640563807, 136.03394968975897), (-129.8478148730881, -156.9767060414943), (-78.43620372961797, -59.296913602640984), (46.64101477250908, -105.9833210736073), (-185.00503866999858, -84.59976327501232), (-113.43793280156163, 54.45431721254465), (95.05875248124272, -42.39371351956943), (-39.68730126217207, -93.14026911201486), (102.35292909350258, 33.770775459386996), (201.17917456261478, -110.30909338866627), (-127.88342183767762, -24.259664327109448)]",1,tangential,81.92,467.86,10.03,13.52,0.0855,3,,,,,0,0,0,0,,,,,0,7,7,134,,,,,,,,,,,,,,,space,0.5418781996704638,,,,,45,,,,,,,,,,,,,,,,,,,,,,,,,,,601.1455709002912,None,,,,,,,,,5,21,Female,2021_Dec_14_1001,uniform_mix,2021.2.3,59.88988643904216,
c4_mix_ref.xlsx,c4_mix_t.xlsx,c4_mix.xlsx,stims/contrast67.png,,67,2105,0.4,42,"[(-110.0, -140.0), (-160.0, 30.0), (-60.0, -100.0), (150.0, -120.0), (-100.0, 0.0), (-180.0, -100.0), (190.0, 60.0), (130.0, -20.0), (70.0, -80.0), (-100.0, 110.0), (130.0, 140.0), (70.0, 110.0), (-10.0, -100.0), (-100.0, 50.0), (20.0, 110.0), (80.0, 60.0), (-140.0, -30.0), (-90.0, -50.0), (-30.0, 130.0), (60.0, -140.0), (-190.0, 130.0), (-85.11828298249699, -129.86638778927912), (-137.94218939062887, 17.093595905463904), (-44.36728989685825, -89.48408953308763), (129.35344775206863, -93.7288375583223), (-76.20718428599065, -2.239961355900884), (-169.5845751417322, -76.5436377398142), (162.65547268302404, 46.32606823226615), (116.478090415138, -8.37692096325506), (63.066688162989394, -65.26243219448664), (-85.43290537315059, 91.84917362260295), (156.6907890786954, 164.68929723132408), (75.3908257625161, 122.21267205966933), (-17.64332769427027, -112.97925669821996), (-110.77402531123371, 59.61749524754082), (23.7625044311972, 126.0112045621349), (90.03866893550345, 72.47634658573651), (-167.06687668347513, -30.170233716085), (-106.53804920321201, -51.933630620171954), (-39.16251871780272, 152.2068112853405), (73.10677761877125, -171.91389098077957), (-233.23455982934715, 158.923081144084)]","[(-110.0, -140.0), (-160.0, 30.0), (-60.0, -100.0), (150.0, -120.0), (-100.0, 0.0), (-180.0, -100.0), (190.0, 60.0), (130.0, -20.0), (70.0, -80.0), (-100.0, 110.0), (130.0, 140.0), (70.0, 110.0), (-10.0, -100.0), (-100.0, 50.0), (20.0, 110.0), (80.0, 60.0), (-140.0, -30.0), (-90.0, -50.0), (-30.0, 130.0), (60.0, -140.0), (-190.0, 130.0)]","[(-85.11828298249699, -129.86638778927912), (-137.94218939062887, 17.093595905463904), (-44.36728989685825, -89.48408953308763), (129.35344775206863, -93.7288375583223), (-76.20718428599065, -2.239961355900884), (-169.5845751417322, -76.5436377398142), (162.65547268302404, 46.32606823226615), (116.478090415138, -8.37692096325506), (63.066688162989394, -65.26243219448664), (-85.43290537315059, 91.84917362260295), (156.6907890786954, 164.68929723132408), (75.3908257625161, 122.21267205966933), (-17.64332769427027, -112.97925669821996), (-110.77402531123371, 59.61749524754082), (23.7625044311972, 126.0112045621349), (90.03866893550345, 72.47634658573651), (-167.06687668347513, -30.170233716085), (-106.53804920321201, -51.933630620171954), (-39.16251871780272, 152.2068112853405), (73.10677761877125, -171.91389098077957), (-233.23455982934715, 158.923081144084)]",1,radial,85.59,491.03,9.56,12.83,0.0855,3,,,,,0,0,0,0,,,,,0,8,8,66,,,,,,,,,,,,,,,space,0.46567239984869957,,,,,50,,,,,,,,,,,,,,,,,,,,,,,,,,,604.7276480002329,None,,,,,,,,,5,21,Female,2021_Dec_14_1001,uniform_mix,2021.2.3,59.88988643904216,
c4_mix_ref.xlsx,c4_mix_t.xlsx,c4_mix.xlsx,stims/contrast105.png,,105,410,0.4,38,"[(110.0, 20.0), (-60.0, -130.0), (-190.0, 10.0), (-60.0, -80.0), (10.0, -100.0), (190.0, 130.0), (-150.0, -90.0), (120.0, -60.0), (-110.0, 120.0), (90.0, 140.0), (180.0, -120.0), (60.0, -100.0), (-110.0, 30.0), (180.0, -10.0), (30.0, 100.0), (110.0, 80.0), (-30.0, 100.0), (-190.0, 110.0), (-130.0, -30.0), (120.42408681681096, -75.79985795158187), (-166.84168302146102, 132.25144781404126), (-11.555441267916962, 106.47004770358703), (128.69116457970074, 71.14815240056042), (-132.88866956554108, -16.809049824326422), (32.983294343338116, -95.5908309349624), (-120.11532608833285, 96.1093115248466), (9.84239720159178, 100.0151611216379), (66.90240790626336, 157.03969848143447), (71.98547335794348, -88.32945499648952), (175.2807481619638, 154.76132026046213), (-154.13147957213567, -63.79588618206664), (-137.39341167768788, -123.05984764973147), (174.2179191053219, -44.127611530176864), (189.605427000411, 8.82348905638014), (-111.27994332598875, 48.16497405098093), (-110.02574550031602, 12.929591156891803), (164.9349072361573, -147.06194688088692), (199.92454381417744, -79.32881365944823)]","[(110.0, 20.0), (-60.0, -130.0), (-190.0, 10.0), (-60.0, -80.0), (10.0, -100.0), (190.0, 130.0), (-150.0, -90.0), (120.0, -60.0), (-110.0, 120.0), (90.0, 140.0), (180.0, -120.0), (60.0, -100.0), (-110.0, 30.0), (180.0, -10.0), (30.0, 100.0), (110.0, 80.0), (-30.0, 100.0), (-190.0, 110.0), (-130.0, -30.0)]","[(120.42408681681096, -75.79985795158187), (-166.84168302146102, 132.25144781404126), (-11.555441267916962, 106.47004770358703), (128.69116457970074, 71.14815240056042), (-132.88866956554108, -16.809049824326422), (32.983294343338116, -95.5908309349624), (-120.11532608833285, 96.1093115248466), (9.84239720159178, 100.0151611216379), (66.90240790626336, 157.03969848143447), (71.98547335794348, -88.32945499648952), (175.2807481619638, 154.76132026046213), (-154.13147957213567, -63.79588618206664), (-137.39341167768788, -123.05984764973147), (174.2179191053219, -44.127611530176864), (189.605427000411, 8.82348905638014), (-111.27994332598875, 48.16497405098093), (-110.02574550031602, 12.929591156891803), (164.9349072361573, -147.06194688088692), (199.92454381417744, -79.32881365944823)]",0.5,tangential,80.93,444.51,10.07,13.51,0.0855,1,,,,,0,0,0,0,,,,,0,9,9,104,,,,,,,,,,,,,,,space,0.3910248000174761,,,,,39,,,,,,,,,,,,,,,,,,,,,,,,,,,614.3024670998566,None,,,,,,,,,5,21,Female,2021_Dec_14_1001,uniform_mix,2021.2.3,59.88988643904216,
c4_mix_ref.xlsx,c4_mix_t.xlsx,c4_mix.xlsx,stims/contrastsub4.png,,4,None,0.4,3,"[(30.0, -110.0), (140.0, 90.0), (-40.0, -130.0)]",None,None,None,None,None,None,None,None,None,None,,,,,0,0,0,0,,,,,0,10,10,147,,,,,,,,,,,,,,,space,0.32595100020989776,,,,,2,,,,,,,,,,,,,,,,,,,,,,,,,,,620.2669140999205,None,,,,,,,,,5,21,Female,2021_Dec_14_1001,uniform_mix,2021.2.3,59.88988643904216,
c4_mix_ref.xlsx,c4_mix_t.xlsx,c4_mix.xlsx,stims/contrast69.png,,69,1653,0.4,44,"[(-60.0, -80.0), (180.0, 50.0), (-100.0, 20.0), (90.0, 80.0), (-170.0, 10.0), (-110.0, 120.0), (-50.0, -140.0), (0.0, -100.0), (100.0, -40.0), (-40.0, 110.0), (120.0, -140.0), (-100.0, -30.0), (40.0, -140.0), (60.0, -80.0), (40.0, 100.0), (130.0, 140.0), (150.0, -10.0), (-170.0, -130.0), (100.0, 20.0), (190.0, -80.0), (0.0, 140.0), (-200.0, 90.0), (-49.18180757798628, -59.7022212532533), (140.00131724429005, 42.215640367321356), (-80.68469962253484, 19.689350460025224), (77.27894450345939, 62.88724373438657), (-143.57732243823594, 8.245105895134769), (-87.0691533410138, 105.29071501421087), (-39.10771548368773, -122.67673834375569), (3.646645014541196, -82.8066580898127), (84.03435090171071, -35.69096504287276), (-41.6266461111526, 91.72653276403315), (91.34497253159869, -125.92563722648546), (-124.83774946012736, -37.54704614724167), (36.94712925355706, -163.9876751637124), (68.9437672289601, -86.40475780566179), (49.7485900499029, 112.48162362640873), (162.67905961634676, 173.1954471213776), (171.19595994111742, -8.887898043942268), (-189.77949641272937, -148.47593391135678), (118.81280819417583, 28.21038025728359), (227.02171199514157, -88.72075783138243), (0.48560639509882897, 159.0917893717175), (-230.6371366295004, 94.45692822225638)]","[(-60.0, -80.0), (180.0, 50.0), (-100.0, 20.0), (90.0, 80.0), (-170.0, 10.0), (-110.0, 120.0), (-50.0, -140.0), (0.0, -100.0), (100.0, -40.0), (-40.0, 110.0), (120.0, -140.0), (-100.0, -30.0), (40.0, -140.0), (60.0, -80.0), (40.0, 100.0), (130.0, 140.0), (150.0, -10.0), (-170.0, -130.0), (100.0, 20.0), (190.0, -80.0), (0.0, 140.0), (-200.0, 90.0)]","[(-49.18180757798628, -59.7022212532533), (140.00131724429005, 42.215640367321356), (-80.68469962253484, 19.689350460025224), (77.27894450345939, 62.88724373438657), (-143.57732243823594, 8.245105895134769), (-87.0691533410138, 105.29071501421087), (-39.10771548368773, -122.67673834375569), (3.646645014541196, -82.8066580898127), (84.03435090171071, -35.69096504287276), (-41.6266461111526, 91.72653276403315), (91.34497253159869, -125.92563722648546), (-124.83774946012736, -37.54704614724167), (36.94712925355706, -163.9876751637124), (68.9437672289601, -86.40475780566179), (49.7485900499029, 112.48162362640873), (162.67905961634676, 173.1954471213776), (171.19595994111742, -8.887898043942268), (-189.77949641272937, -148.47593391135678), (118.81280819417583, 28.21038025728359), (227.02171199514157, -88.72075783138243), (0.48560639509882897, 159.0917893717175), (-230.6371366295004, 94.45692822225638)]",1,radial,88.43,515.48,9.49,12.91,0.0854,1,,,,,0,0,0,0,,,,,0,11,11,68,,,,,,,,,,,,,,,space,0.5669897003099322,,,,,25,,,,,,,,,,,,,,,,,,,,,,,,,,,623.1732361000031,None,,,,,,,,,5,21,Female,2021_Dec_14_1001,uniform_mix,2021.2.3,59.88988643904216,
c4_mix_ref.xlsx,c4_mix_t.xlsx,c4_mix.xlsx,stims/contrast83.png,,83,980,0.4,38,"[(-30.0, 110.0), (-100.0, -50.0), (100.0, -30.0), (200.0, -130.0), (-20.0, -100.0), (20.0, 140.0), (110.0, -80.0), (-190.0, 100.0), (20.0, -120.0), (-150.0, -140.0), (-130.0, 30.0), (90.0, 100.0), (110.0, 30.0), (-70.0, -100.0), (180.0, 80.0), (-200.0, 0.0), (60.0, -90.0), (-80.0, 100.0), (180.0, -40.0), (69.32186478677242, -78.94739589809325), (-164.44918956353925, -104.62622601898002), (-130.40749738043957, -168.98746151412007), (177.9023037583396, 49.1868313534101), (168.29505291912525, 100.84138836762216), (104.6588374466887, 83.68221785756734), (74.5430646680359, 118.94022477946241), (-85.02595037222821, -82.90956537248358), (-63.082040300033384, -112.18790080944322), (-136.902796740456, 49.00694902969644), (-134.90285258820705, -1.2958331236600742), (-217.59975783758222, 22.08051660770687), (-203.85618640488167, -44.78007835620548), (173.27704585534534, -78.57380689550087), (198.2549523861794, -15.522909255508495), (-61.93981689055046, 111.21943440637708), (-103.76448684921317, 91.79422910769497), (111.33905430769133, 14.996862809108379), (102.34035096534409, 46.67589900819266)]","[(-30.0, 110.0), (-100.0, -50.0), (100.0, -30.0), (200.0, -130.0), (-20.0, -100.0), (20.0, 140.0), (110.0, -80.0), (-190.0, 100.0), (20.0, -120.0), (-150.0, -140.0), (-130.0, 30.0), (90.0, 100.0), (110.0, 30.0), (-70.0, -100.0), (180.0, 80.0), (-200.0, 0.0), (60.0, -90.0), (-80.0, 100.0), (180.0, -40.0)]","[(69.32186478677242, -78.94739589809325), (-164.44918956353925, -104.62622601898002), (-130.40749738043957, -168.98746151412007), (177.9023037583396, 49.1868313534101), (168.29505291912525, 100.84138836762216), (104.6588374466887, 83.68221785756734), (74.5430646680359, 118.94022477946241), (-85.02595037222821, -82.90956537248358), (-63.082040300033384, -112.18790080944322), (-136.902796740456, 49.00694902969644), (-134.90285258820705, -1.2958331236600742), (-217.59975783758222, 22.08051660770687), (-203.85618640488167, -44.78007835620548), (173.27704585534534, -78.57380689550087), (198.2549523861794, -15.522909255508495), (-61.93981689055046, 111.21943440637708), (-103.76448684921317, 91.79422910769497), (111.33905430769133, 14.996862809108379), (102.34035096534409, 46.67589900819266)]",0,tangential,80.55,444.64,10.01,13.41,0.0855,3,,,,,0,0,0,0,,,,,0,12,12,82,,,,,,,,,,,,,,,space,1.2363714999519289,,,,,20,,,,,,,,,,,,,,,,,,,,,,,,,,,633.3476745001972,None,,,,,,,,,5,21,Female,2021_Dec_14_1001,uniform_mix,2021.2.3,59.88988643904216,
c4_mix_ref.xlsx,c4_mix_t.xlsx,c4_mix.xlsx,stims/contrast89.png,,89,3152,0.4,42,"[(-200.0, 40.0), (-80.0, -140.0), (-110.0, 80.0), (120.0, 60.0), (-10.0, 130.0), (-90.0, -50.0), (80.0, -140.0), (100.0, 10.0), (20.0, -120.0), (70.0, -80.0), (-30.0, -100.0), (150.0, -70.0), (60.0, 120.0), (200.0, -140.0), (-170.0, -40.0), (140.0, 140.0), (200.0, 40.0), (-60.0, 90.0), (-160.0, -120.0), (-140.0, 140.0), (-100.0, 10.0), (-172.2108383302856, 121.34663598116802), (-171.1723783474052, -20.528318983467244), (-156.02054247527562, -77.45260238780406), (-100.75764609374528, 21.607370819965283), (-96.54455295967679, -10.68273824379105), (-167.6646154166018, -95.62394460135147), (-146.36304574486684, -137.38538557675548), (88.22858285996112, 104.70650809973436), (44.596776603439736, 127.5689916157213), (149.80210715713383, -99.76432589051754), (163.5705776585687, -38.85753304846088), (154.1648960228025, 114.6616825879639), (111.3862650936344, 166.57093801267678), (196.03183918292532, -167.36382903339), (227.82205602999562, -123.50113028821951), (-45.903997426544635, 101.41049746755284), (-68.21504981739749, 77.4112110682664), (-43.40487237358634, -93.56235056675628), (-16.433845825448373, -97.20105622964863), (214.17415146644896, -1.8074063366148039), (184.1994290608945, 78.84980126481247)]","[(-200.0, 40.0), (-80.0, -140.0), (-110.0, 80.0), (120.0, 60.0), (-10.0, 130.0), (-90.0, -50.0), (80.0, -140.0), (100.0, 10.0), (20.0, -120.0), (70.0, -80.0), (-30.0, -100.0), (150.0, -70.0), (60.0, 120.0), (200.0, -140.0), (-170.0, -40.0), (140.0, 140.0), (200.0, 40.0), (-60.0, 90.0), (-160.0, -120.0), (-140.0, 140.0), (-100.0, 10.0)]","[(-172.2108383302856, 121.34663598116802), (-171.1723783474052, -20.528318983467244), (-156.02054247527562, -77.45260238780406), (-100.75764609374528, 21.607370819965283), (-96.54455295967679, -10.68273824379105), (-167.6646154166018, -95.62394460135147), (-146.36304574486684, -137.38538557675548), (88.22858285996112, 104.70650809973436), (44.596776603439736, 127.5689916157213), (149.80210715713383, -99.76432589051754), (163.5705776585687, -38.85753304846088), (154.1648960228025, 114.6616825879639), (111.3862650936344, 166.57093801267678), (196.03183918292532, -167.36382903339), (227.82205602999562, -123.50113028821951), (-45.903997426544635, 101.41049746755284), (-68.21504981739749, 77.4112110682664), (-43.40487237358634, -93.56235056675628), (-16.433845825448373, -97.20105622964863), (214.17415146644896, -1.8074063366148039), (184.1994290608945, 78.84980126481247)]",0,tangential,84.03,491.86,10.44,14.1,0.0854,1,,,,,0,0,0,0,,,,,0,13,13,88,,,,,,,,,,,,,,,space,0.29161670012399554,,,,,38,,,,,,,,,,,,,,,,,,,,,,,,,,,644.8556420002133,None,,,,,,,,,5,21,Female,2021_Dec_14_1001,uniform_mix,2021.2.3,59.88988643904216,
c4_mix_ref.xlsx,c4_mix_t.xlsx,c4_mix.xlsx,stims/contrast41.png,,41,4016,0.4,42,"[(-180.0, -130.0), (170.0, 20.0), (90.0, 140.0), (0.0, -110.0), (200.0, -80.0), (-200.0, -30.0), (-30.0, 110.0), (-160.0, 60.0), (10.0, 140.0), (80.0, 80.0), (60.0, -90.0), (-50.0, -120.0), (120.0, -110.0), (190.0, 100.0), (-90.0, 110.0), (110.0, -20.0), (-100.0, -20.0), (-100.0, -80.0), (100.0, 30.0), (-100.0, 30.0), (-200.0, 140.0), (-21.764985887037508, 85.079548765119), (14.970727008213228, 124.48521986598965), (-77.1089557311336, 27.889352533344095), (-73.71278417666997, 102.59078655653165), (43.7952592860754, -69.46634636992906), (124.733580313058, -18.62712919874005), (-186.239432755282, 54.615490391076406), (-61.521090909026455, -138.68236530308326), (87.695719543238, 98.46724142065158), (109.15718324599398, 37.30496145644965), (216.74180468023025, 97.20427797148062), (-79.70290438188778, -62.303531110434356), (-114.27718680667192, -86.47503610630615), (-80.67015869448366, -15.263844266530194), (-110.36030588742867, -30.37599259934149), (-192.0609520318999, 110.13165022660624), (-233.37284716713492, 149.48171943133082), (-161.87678004809084, -34.084296586459914), (-229.28275243640869, -34.974003813314866), (93.33457013594915, -99.7343966012979), (129.17953868726212, -132.30843376597238)]","[(-180.0, -130.0), (170.0, 20.0), (90.0, 140.0), (0.0, -110.0), (200.0, -80.0), (-200.0, -30.0), (-30.0, 110.0), (-160.0, 60.0), (10.0, 140.0), (80.0, 80.0), (60.0, -90.0), (-50.0, -120.0), (120.0, -110.0), (190.0, 100.0), (-90.0, 110.0), (110.0, -20.0), (-100.0, -20.0), (-100.0, -80.0), (100.0, 30.0), (-100.0, 30.0), (-200.0, 140.0)]","[(-21.764985887037508, 85.079548765119), (14.970727008213228, 124.48521986598965), (-77.1089557311336, 27.889352533344095), (-73.71278417666997, 102.59078655653165), (43.7952592860754, -69.46634636992906), (124.733580313058, -18.62712919874005), (-186.239432755282, 54.615490391076406), (-61.521090909026455, -138.68236530308326), (87.695719543238, 98.46724142065158), (109.15718324599398, 37.30496145644965), (216.74180468023025, 97.20427797148062), (-79.70290438188778, -62.303531110434356), (-114.27718680667192, -86.47503610630615), (-80.67015869448366, -15.263844266530194), (-110.36030588742867, -30.37599259934149), (-192.0609520318999, 110.13165022660624), (-233.37284716713492, 149.48171943133082), (-161.87678004809084, -34.084296586459914), (-229.28275243640869, -34.974003813314866), (93.33457013594915, -99.7343966012979), (129.17953868726212, -132.30843376597238)]",0.5,radial,86.68,491.68,9.81,13.23,0.0854,1,,,,,0,0,0,0,,,,,0,14,14,40,,,,,,,,,,,,,,,space,0.35487839998677373,,,,,44,,,,,,,,,,,,,,,,,,,,,,,,,,,648.9506292003207,None,,,,,,,,,5,21,Female,2021_Dec_14_1001,uniform_mix,2021.2.3,59.88988643904216,
c4_mix_ref.xlsx,c4_mix_t.xlsx,c4_mix.xlsx,stims/contrast65.png,,65,101,0.4,42,"[(-120.0, -80.0), (110.0, 70.0), (90.0, 130.0), (-90.0, 90.0), (-180.0, -50.0), (200.0, 140.0), (130.0, -140.0), (-60.0, -130.0), (-160.0, 90.0), (100.0, 20.0), (-10.0, 120.0), (60.0, -80.0), (-200.0, -140.0), (-120.0, 0.0), (200.0, -100.0), (30.0, 100.0), (-60.0, -80.0), (110.0, -60.0), (-10.0, -100.0), (180.0, 10.0), (60.0, -140.0), (-94.67839309846693, -65.49196058764909), (86.51252452871074, 65.45999541143281), (78.33618593664706, 109.07870374009441), (-79.92547490173969, 75.56290230263426), (-154.75704233333505, -42.28113751353638), (160.37961591108643, 132.0943542890314), (103.17594445566186, -110.15755308214733), (-42.74533019103741, -114.01638406266042), (-124.39299646930615, 78.86759427080459), (90.3933029703468, 15.263639317787325), (-7.3797223357898964, 142.7422186284075), (75.658210358171, -94.03042927139933), (-222.4615339849713, -169.93025167657538), (-136.76652798355116, -0.3734010331384656), (232.78427807482112, -95.74272477339494), (38.19319990791954, 121.73079166293127), (-68.99680282087778, -89.79791168211874), (124.67350084272951, -68.96507007834899), (-16.82641416689575, -119.96053469957307), (220.71616038527927, 16.529712875194498), (55.51449686219836, -158.85073848458632)]","[(-120.0, -80.0), (110.0, 70.0), (90.0, 130.0), (-90.0, 90.0), (-180.0, -50.0), (200.0, 140.0), (130.0, -140.0), (-60.0, -130.0), (-160.0, 90.0), (100.0, 20.0), (-10.0, 120.0), (60.0, -80.0), (-200.0, -140.0), (-120.0, 0.0), (200.0, -100.0), (30.0, 100.0), (-60.0, -80.0), (110.0, -60.0), (-10.0, -100.0), (180.0, 10.0), (60.0, -140.0)]","[(-94.67839309846693, -65.49196058764909), (86.51252452871074, 65.45999541143281), (78.33618593664706, 109.07870374009441), (-79.92547490173969, 75.56290230263426), (-154.75704233333505, -42.28113751353638), (160.37961591108643, 132.0943542890314), (103.17594445566186, -110.15755308214733), (-42.74533019103741, -114.01638406266042), (-124.39299646930615, 78.86759427080459), (90.3933029703468, 15.263639317787325), (-7.3797223357898964, 142.7422186284075), (75.658210358171, -94.03042927139933), (-222.4615339849713, -169.93025167657538), (-136.76652798355116, -0.3734010331384656), (232.78427807482112, -95.74272477339494), (38.19319990791954, 121.73079166293127), (-68.99680282087778, -89.79791168211874), (124.67350084272951, -68.96507007834899), (-16.82641416689575, -119.96053469957307), (220.71616038527927, 16.529712875194498), (55.51449686219836, -158.85073848458632)]",1,radial,87.78,491.13,9.9,13.3,0.0855,1,,,,,0,0,0,0,,,,,0,15,15,64,,,,,,,,,,,,,,,space,0.16342510003596544,,,,,38,,,,,,,,,,,,,,,,,,,,,,,,,,,652.0166144999675,None,,,,,,,,,5,21,Female,2021_Dec_14_1001,uniform_mix,2021.2.3,59.88988643904216,
c4_mix_ref.xlsx,c4_mix_t.xlsx,c4_mix.xlsx,stims/contrast1.png,,1,457,0.4,34,"[(-60.0, 110.0), (-40.0, -140.0), (-110.0, -100.0), (150.0, 120.0), (100.0, 0.0), (80.0, -100.0), (160.0, 20.0), (-140.0, -10.0), (-100.0, 60.0), (80.0, 140.0), (-60.0, -80.0), (140.0, -90.0), (-180.0, 100.0), (-180.0, -70.0), (20.0, 130.0), (10.0, -120.0), (90.0, 60.0), (13.869669861558279, 146.89501112823876), (-147.9282430984944, -60.85874020783034), (-202.85285142413292, -76.67353758279815), (-81.5215921310935, 53.08960239872458), (-107.61141918831316, 74.91249783802625), (65.27087696180456, 127.52466778633799), (101.47617442077376, 163.7027887149124), (-49.20870058772314, -62.50495011433299), (-66.13249432305611, -89.95369188913578), (-166.89740847346724, 73.28482429982635), (-221.09970576843705, 117.09043033747047), (72.58696938760912, 47.30007380296372), (94.40993752556054, 73.96100383648456), (106.4011862177574, -69.33862450164787), (162.37089759633838, -87.77998467767904), (6.920053215475432, -99.89364965684928), (18.581399229647584, -142.02060117094493)]","[(-60.0, 110.0), (-40.0, -140.0), (-110.0, -100.0), (150.0, 120.0), (100.0, 0.0), (80.0, -100.0), (160.0, 20.0), (-140.0, -10.0), (-100.0, 60.0), (80.0, 140.0), (-60.0, -80.0), (140.0, -90.0), (-180.0, 100.0), (-180.0, -70.0), (20.0, 130.0), (10.0, -120.0), (90.0, 60.0)]","[(13.869669861558279, 146.89501112823876), (-147.9282430984944, -60.85874020783034), (-202.85285142413292, -76.67353758279815), (-81.5215921310935, 53.08960239872458), (-107.61141918831316, 74.91249783802625), (65.27087696180456, 127.52466778633799), (101.47617442077376, 163.7027887149124), (-49.20870058772314, -62.50495011433299), (-66.13249432305611, -89.95369188913578), (-166.89740847346724, 73.28482429982635), (-221.09970576843705, 117.09043033747047), (72.58696938760912, 47.30007380296372), (94.40993752556054, 73.96100383648456), (106.4011862177574, -69.33862450164787), (162.37089759633838, -87.77998467767904), (6.920053215475432, -99.89364965684928), (18.581399229647584, -142.02060117094493)]",0,radial,77.3,406.24,9.47,12.77,0.0837,1,,,,,0,0,0,0,,,,,0,16,16,0,,,,,,,,,,,,,,,space,0.3702120999805629,,,,,26,,,,,,,,,,,,,,,,,,,,,,,,,,,656.8700216002762,None,,,,,,,,,5,21,Female,2021_Dec_14_1001,uniform_mix,2021.2.3,59.88988643904216,
c4_mix_ref.xlsx,c4_mix_t.xlsx,c4_mix.xlsx,stims/contrast84.png,,84,552,0.4,38,"[(100.0, -10.0), (110.0, 50.0), (-190.0, -30.0), (70.0, -130.0), (-50.0, -100.0), (0.0, -130.0), (-90.0, -50.0), (-200.0, -110.0), (-20.0, 140.0), (-90.0, 120.0), (-200.0, 90.0), (140.0, -50.0), (-110.0, 30.0), (50.0, 110.0), (60.0, -80.0), (170.0, -120.0), (170.0, 100.0), (200.0, 0.0), (-110.0, -100.0), (141.54344913119547, -27.56421193319308), (150.31915060666103, -149.73854470024082), (185.26600179756545, -87.66257804786335), (-65.8020602192536, 127.19381423934777), (-115.57386275854834, 105.70811337425141), (199.32358296616766, -31.92813171461495), (194.62213590742678, 26.825732274654456), (-186.2249944294377, 137.68689377385016), (-209.77445132608324, 45.526185746857124), (-124.97924176267809, -85.95758421534012), (-94.94074578855903, -125.54381242371086), (42.519333813143746, -94.59462414428833), (66.89323705617984, -68.75154195392994), (-103.0843823014242, 47.22186844539726), (-116.19804394113648, 11.50227033218043), (68.09505152060552, 94.9654098264028), (36.45310754167525, 113.4667609536917), (195.57459531188942, 89.78686046293566), (148.6686777794925, 116.07174722014793)]","[(100.0, -10.0), (110.0, 50.0), (-190.0, -30.0), (70.0, -130.0), (-50.0, -100.0), (0.0, -130.0), (-90.0, -50.0), (-200.0, -110.0), (-20.0, 140.0), (-90.0, 120.0), (-200.0, 90.0), (140.0, -50.0), (-110.0, 30.0), (50.0, 110.0), (60.0, -80.0), (170.0, -120.0), (170.0, 100.0), (200.0, 0.0), (-110.0, -100.0)]","[(141.54344913119547, -27.56421193319308), (150.31915060666103, -149.73854470024082), (185.26600179756545, -87.66257804786335), (-65.8020602192536, 127.19381423934777), (-115.57386275854834, 105.70811337425141), (199.32358296616766, -31.92813171461495), (194.62213590742678, 26.825732274654456), (-186.2249944294377, 137.68689377385016), (-209.77445132608324, 45.526185746857124), (-124.97924176267809, -85.95758421534012), (-94.94074578855903, -125.54381242371086), (42.519333813143746, -94.59462414428833), (66.89323705617984, -68.75154195392994), (-103.0843823014242, 47.22186844539726), (-116.19804394113648, 11.50227033218043), (68.09505152060552, 94.9654098264028), (36.45310754167525, 113.4667609536917), (195.57459531188942, 89.78686046293566), (148.6686777794925, 116.07174722014793)]",0,tangential,81.46,443.16,10.28,13.79,0.0857,4,,,,,0,0,0,0,,,,,0,17,17,83,,,,,,,,,,,,,,,space,0.46467679971829057,,,,,34,,,,,,,,,,,,,,,,,,,,,,,,,,,661.7970219999552,None,,,,,,,,,5,21,Female,2021_Dec_14_1001,uniform_mix,2021.2.3,59.88988643904216,
c4_mix_ref.xlsx,c4_mix_t.xlsx,c4_mix.xlsx,stims/contrast71.png,,71,2987,0.4,44,"[(110.0, -140.0), (40.0, 140.0), (110.0, 40.0), (200.0, -120.0), (-10.0, 100.0), (-120.0, 60.0), (-50.0, 140.0), (140.0, -10.0), (80.0, -70.0), (-60.0, 80.0), (150.0, 100.0), (-80.0, -60.0), (-190.0, 40.0), (80.0, 100.0), (-190.0, 130.0), (200.0, 30.0), (50.0, -110.0), (-60.0, -110.0), (-100.0, 10.0), (-180.0, -140.0), (-130.0, -50.0), (-10.0, -100.0), (80.66830003895289, -111.16834780848636), (27.664156448367603, 117.73112431052049), (91.010062189252, 39.34473424205398), (152.07919167252817, -88.83198755555188), (-9.435072982897934, 80.80832611565971), (-107.95941543948102, 47.30244288768934), (-51.11295673948926, 118.19483277385203), (118.8636344007281, 0.5083363326623243), (74.53548387634035, -58.570719776239706), (-47.229966906239106, 64.84979121613196), (127.39155307742378, 97.02843707003277), (-88.4589977369718, -75.4957578728464), (-226.12312707527911, 39.486761929716955), (94.62106582864368, 106.21913580783033), (-207.48916518543737, 148.61131226920122), (239.94412474913048, 36.49899257077304), (62.32362548175595, -127.46977368411407), (-69.83010941173059, -131.00465660448737), (-119.14440324245045, 6.105825430707894), (-222.5835151549561, -159.40978347441043), (-144.00743762928124, -54.77746937598281), (-12.43321568968513, -110.11237220674687)]","[(110.0, -140.0), (40.0, 140.0), (110.0, 40.0), (200.0, -120.0), (-10.0, 100.0), (-120.0, 60.0), (-50.0, 140.0), (140.0, -10.0), (80.0, -70.0), (-60.0, 80.0), (150.0, 100.0), (-80.0, -60.0), (-190.0, 40.0), (80.0, 100.0), (-190.0, 130.0), (200.0, 30.0), (50.0, -110.0), (-60.0, -110.0), (-100.0, 10.0), (-180.0, -140.0), (-130.0, -50.0), (-10.0, -100.0)]","[(80.66830003895289, -111.16834780848636), (27.664156448367603, 117.73112431052049), (91.010062189252, 39.34473424205398), (152.07919167252817, -88.83198755555188), (-9.435072982897934, 80.80832611565971), (-107.95941543948102, 47.30244288768934), (-51.11295673948926, 118.19483277385203), (118.8636344007281, 0.5083363326623243), (74.53548387634035, -58.570719776239706), (-47.229966906239106, 64.84979121613196), (127.39155307742378, 97.02843707003277), (-88.4589977369718, -75.4957578728464), (-226.12312707527911, 39.486761929716955), (94.62106582864368, 106.21913580783033), (-207.48916518543737, 148.61131226920122), (239.94412474913048, 36.49899257077304), (62.32362548175595, -127.46977368411407), (-69.83010941173059, -131.00465660448737), (-119.14440324245045, 6.105825430707894), (-222.5835151549561, -159.40978347441043), (-144.00743762928124, -54.77746937598281), (-12.43321568968513, -110.11237220674687)]",1,radial,89.74,514.71,9.67,13.18,0.0855,3,,,,,0,0,0,0,,,,,0,18,18,70,,,,,,,,,,,,,,,space,0.40428739972412586,,,,,50,,,,,,,,,,,,,,,,,,,,,,,,,,,667.1360633000731,None,,,,,,,,,5,21,Female,2021_Dec_14_1001,uniform_mix,2021.2.3,59.88988643904216,
c4_mix_ref.xlsx,c4_mix_t.xlsx,c4_mix.xlsx,stims/contrast129.png,,129,279,0.4,38,"[(-200.0, 10.0), (-130.0, -10.0), (180.0, -90.0), (-50.0, 90.0), (110.0, 10.0), (140.0, 70.0), (60.0, 140.0), (80.0, 60.0), (-100.0, 140.0), (60.0, -140.0), (90.0, -70.0), (-100.0, 70.0), (0.0, 120.0), (160.0, -20.0), (-10.0, -130.0), (-130.0, -90.0), (-200.0, 130.0), (190.0, 130.0), (-60.0, -90.0), (-209.39654490726335, 50.5763523175315), (-131.57221083071732, 13.685783016582235), (185.75116416546044, -117.58372918946503), (-44.50452551725695, 103.36846408641779), (115.8076184076955, -7.150738561741477), (151.27899357971367, 42.81813988453456), (89.46562670966993, 122.96341719644735), (91.65422412723713, 54.9620059024289), (-73.76731391552593, 150.97260490468668), (82.27414454512189, -121.77281943370707), (102.60863126962005, -52.85016050610895), (-109.95742215280725, 48.11671989486305), (-16.933029512453132, 111.82495999793339), (153.93123322819162, 9.564450846679165), (8.654959932905342, -140.457540060976), (-115.94394347778697, -119.76924978519217), (-225.45827576013897, 81.83439893829785), (164.6265927313715, 156.62750746094426), (-42.75493154083523, -106.00523557859987)]","[(-200.0, 10.0), (-130.0, -10.0), (180.0, -90.0), (-50.0, 90.0), (110.0, 10.0), (140.0, 70.0), (60.0, 140.0), (80.0, 60.0), (-100.0, 140.0), (60.0, -140.0), (90.0, -70.0), (-100.0, 70.0), (0.0, 120.0), (160.0, -20.0), (-10.0, -130.0), (-130.0, -90.0), (-200.0, 130.0), (190.0, 130.0), (-60.0, -90.0)]","[(-209.39654490726335, 50.5763523175315), (-131.57221083071732, 13.685783016582235), (185.75116416546044, -117.58372918946503), (-44.50452551725695, 103.36846408641779), (115.8076184076955, -7.150738561741477), (151.27899357971367, 42.81813988453456), (89.46562670966993, 122.96341719644735), (91.65422412723713, 54.9620059024289), (-73.76731391552593, 150.97260490468668), (82.27414454512189, -121.77281943370707), (102.60863126962005, -52.85016050610895), (-109.95742215280725, 48.11671989486305), (-16.933029512453132, 111.82495999793339), (153.93123322819162, 9.564450846679165), (8.654959932905342, -140.457540060976), (-115.94394347778697, -119.76924978519217), (-225.45827576013897, 81.83439893829785), (164.6265927313715, 156.62750746094426), (-42.75493154083523, -106.00523557859987)]",1,tangential,81.25,444.4,9.95,13.32,0.0855,1,,,,,0,0,0,0,,,,,0,19,19,128,,,,,,,,,,,,,,,space,0.6036506001837552,,,,,39,,,,,,,,,,,,,,,,,,,,,,,,,,,671.4867933001369,None,,,,,,,,,5,21,Female,2021_Dec_14_1001,uniform_mix,2021.2.3,59.88988643904216,
c4_mix_ref.xlsx,c4_mix_t.xlsx,c4_mix.xlsx,stims/contrast116.png,,116,107,0.4,42,"[(190.0, 0.0), (-30.0, 130.0), (100.0, -30.0), (80.0, 70.0), (30.0, 120.0), (-110.0, 0.0), (-190.0, 140.0), (-170.0, 50.0), (100.0, 120.0), (-200.0, -100.0), (-160.0, -30.0), (-100.0, -140.0), (150.0, 60.0), (30.0, -140.0), (70.0, -100.0), (190.0, 140.0), (110.0, 20.0), (-100.0, 90.0), (-80.0, -80.0), (-20.0, -100.0), (130.0, -80.0), (53.73088231419281, -114.40478312706256), (-99.44093860771909, -71.60212010708648), (116.3236173839401, 6.6676182497418495), (-169.19866560113223, 187.12965888663518), (130.32126081841253, -101.09366326915037), (-84.5656872133896, -161.10831129629634), (132.05351835890815, 71.70342014950859), (-180.4867535488434, 16.473651019967008), (-9.40157436944665, -109.66935110342214), (72.4296464257676, 131.8366295132714), (158.65168605325778, 157.3325547026078), (-109.06274100285498, 12.719524880770052), (-105.92648741905377, -18.049020969114608), (-202.14148234403115, -68.7600664426173), (-191.33172112420806, -131.7978080417932), (-163.2097444166257, -1.2687654722929267), (-146.7269490889671, -51.18980751561463), (-78.37066597146746, 114.37339275758436), (-113.61928646392332, 80.17614485808934), (0.19068134312331608, -145.85187660015043), (55.37103344286969, -136.36624045050854)]","[(190.0, 0.0), (-30.0, 130.0), (100.0, -30.0), (80.0, 70.0), (30.0, 120.0), (-110.0, 0.0), (-190.0, 140.0), (-170.0, 50.0), (100.0, 120.0), (-200.0, -100.0), (-160.0, -30.0), (-100.0, -140.0), (150.0, 60.0), (30.0, -140.0), (70.0, -100.0), (190.0, 140.0), (110.0, 20.0), (-100.0, 90.0), (-80.0, -80.0), (-20.0, -100.0), (130.0, -80.0)]","[(53.73088231419281, -114.40478312706256), (-99.44093860771909, -71.60212010708648), (116.3236173839401, 6.6676182497418495), (-169.19866560113223, 187.12965888663518), (130.32126081841253, -101.09366326915037), (-84.5656872133896, -161.10831129629634), (132.05351835890815, 71.70342014950859), (-180.4867535488434, 16.473651019967008), (-9.40157436944665, -109.66935110342214), (72.4296464257676, 131.8366295132714), (158.65168605325778, 157.3325547026078), (-109.06274100285498, 12.719524880770052), (-105.92648741905377, -18.049020969114608), (-202.14148234403115, -68.7600664426173), (-191.33172112420806, -131.7978080417932), (-163.2097444166257, -1.2687654722929267), (-146.7269490889671, -51.18980751561463), (-78.37066597146746, 114.37339275758436), (-113.61928646392332, 80.17614485808934), (0.19068134312331608, -145.85187660015043), (55.37103344286969, -136.36624045050854)]",0.5,tangential,83.96,490.46,10.14,13.47,0.0856,4,,,,,0,0,0,0,,,,,0,20,20,115,,,,,,,,,,,,,,,space,0.21622399985790253,,,,,45,,,,,,,,,,,,,,,,,,,,,,,,,,,678.1629150002263,None,,,,,,,,,5,21,Female,2021_Dec_14_1001,uniform_mix,2021.2.3,59.88988643904216,
c4_mix_ref.xlsx,c4_mix_t.xlsx,c4_mix.xlsx,stims/contrast144.png,,144,2842,0.4,44,"[(70.0, -80.0), (200.0, 140.0), (-70.0, 80.0), (200.0, -10.0), (120.0, -50.0), (-140.0, -40.0), (-170.0, 130.0), (-40.0, -120.0), (190.0, -140.0), (-180.0, 20.0), (-100.0, 0.0), (110.0, 120.0), (-120.0, 50.0), (90.0, 50.0), (20.0, -140.0), (-100.0, -80.0), (90.0, -140.0), (100.0, 0.0), (140.0, 30.0), (-40.0, 130.0), (40.0, 100.0), (-170.0, -130.0), (57.67324150823967, -86.47856403055737), (232.40173260734238, 128.46681750499454), (-50.9588724889964, 92.38035332483528), (207.79955058947075, -39.125727202358746), (112.1006547728572, -77.09734928449488), (-132.64564877982866, -22.749151343802197), (-147.26288491058654, 153.26868580375336), (-61.07497475672187, -120.06130191420368), (179.21236964146294, -165.19030915703183), (-181.68452871212978, 52.82530916446751), (-97.14744481689678, 13.241002775603718), (85.2843156950732, 134.1059057814968), (-126.31317682466302, 24.63252930097704), (77.04527925259012, 57.15637844957247), (36.896174243015096, -137.02381983300398), (-86.94595792665976, -92.10325184446258), (118.0522097338011, -121.93515929359182), (94.26637857326295, 15.205880812041443), (135.9282256040766, 48.20638203856096), (-53.577981086450336, 119.11858260200445), (22.04897469814523, 101.42288708507581), (-147.7346761299711, -167.44450308663264)]","[(70.0, -80.0), (200.0, 140.0), (-70.0, 80.0), (200.0, -10.0), (120.0, -50.0), (-140.0, -40.0), (-170.0, 130.0), (-40.0, -120.0), (190.0, -140.0), (-180.0, 20.0), (-100.0, 0.0), (110.0, 120.0), (-120.0, 50.0), (90.0, 50.0), (20.0, -140.0), (-100.0, -80.0), (90.0, -140.0), (100.0, 0.0), (140.0, 30.0), (-40.0, 130.0), (40.0, 100.0), (-170.0, -130.0)]","[(57.67324150823967, -86.47856403055737), (232.40173260734238, 128.46681750499454), (-50.9588724889964, 92.38035332483528), (207.79955058947075, -39.125727202358746), (112.1006547728572, -77.09734928449488), (-132.64564877982866, -22.749151343802197), (-147.26288491058654, 153.26868580375336), (-61.07497475672187, -120.06130191420368), (179.21236964146294, -165.19030915703183), (-181.68452871212978, 52.82530916446751), (-97.14744481689678, 13.241002775603718), (85.2843156950732, 134.1059057814968), (-126.31317682466302, 24.63252930097704), (77.04527925259012, 57.15637844957247), (36.896174243015096, -137.02381983300398), (-86.94595792665976, -92.10325184446258), (118.0522097338011, -121.93515929359182), (94.26637857326295, 15.205880812041443), (135.9282256040766, 48.20638203856096), (-53.577981086450336, 119.11858260200445), (22.04897469814523, 101.42288708507581), (-147.7346761299711, -167.44450308663264)]",1,tangential,88.05,513.44,9.93,13.43,0.0857,4,,,,,0,0,0,0,,,,,0,21,21,143,,,,,,,,,,,,,,,space,0.22696390002965927,,,,,46,,,,,,,,,,,,,,,,,,,,,,,,,,,685.0421907003038,None,,,,,,,,,5,21,Female,2021_Dec_14_1001,uniform_mix,2021.2.3,59.88988643904216,
c4_mix_ref.xlsx,c4_mix_t.xlsx,c4_mix.xlsx,stims/contrast140.png,,140,1976,0.4,42,"[(80.0, 130.0), (-100.0, -140.0), (190.0, 50.0), (-200.0, 130.0), (-10.0, 140.0), (100.0, -30.0), (-120.0, -80.0), (80.0, -120.0), (150.0, -90.0), (-40.0, -110.0), (-110.0, 90.0), (-200.0, -100.0), (-190.0, 10.0), (-50.0, 110.0), (20.0, -110.0), (-120.0, -20.0), (30.0, 100.0), (-100.0, 20.0), (180.0, 140.0), (120.0, 20.0), (80.0, 70.0), (109.91361247666607, 119.21778345760052), (-113.61470914235814, -121.27017812616288), (207.33823550352875, 27.21779923969771), (-199.50030686180088, 160.09991693006938), (21.280107469152625, 146.99259218308939), (96.26603432222147, -40.62377444510369), (-141.3442567610279, -60.64420102318657), (51.30299101994403, -130.60640372654564), (135.99217227506307, -123.47645811183213), (-59.332594065116965, -99.64171093772282), (-130.32395307216362, 73.16442475209672), (-177.14381533086876, -142.79614960496932), (-199.6084082996732, -11.257838050334612), (-62.40952281172241, 103.72441161607753), (39.952457485721226, -110.38947533099284), (-107.08977294428007, -31.3789083873867), (11.404788994626628, 102.5885318679015), (-96.40279937611761, 4.738121012081962), (173.62974301027623, 177.01593414210515), (110.21760700896185, 39.8878705917041), (64.42048042050465, 77.28756343335652)]","[(80.0, 130.0), (-100.0, -140.0), (190.0, 50.0), (-200.0, 130.0), (-10.0, 140.0), (100.0, -30.0), (-120.0, -80.0), (80.0, -120.0), (150.0, -90.0), (-40.0, -110.0), (-110.0, 90.0), (-200.0, -100.0), (-190.0, 10.0), (-50.0, 110.0), (20.0, -110.0), (-120.0, -20.0), (30.0, 100.0), (-100.0, 20.0), (180.0, 140.0), (120.0, 20.0), (80.0, 70.0)]","[(109.91361247666607, 119.21778345760052), (-113.61470914235814, -121.27017812616288), (207.33823550352875, 27.21779923969771), (-199.50030686180088, 160.09991693006938), (21.280107469152625, 146.99259218308939), (96.26603432222147, -40.62377444510369), (-141.3442567610279, -60.64420102318657), (51.30299101994403, -130.60640372654564), (135.99217227506307, -123.47645811183213), (-59.332594065116965, -99.64171093772282), (-130.32395307216362, 73.16442475209672), (-177.14381533086876, -142.79614960496932), (-199.6084082996732, -11.257838050334612), (-62.40952281172241, 103.72441161607753), (39.952457485721226, -110.38947533099284), (-107.08977294428007, -31.3789083873867), (11.404788994626628, 102.5885318679015), (-96.40279937611761, 4.738121012081962), (173.62974301027623, 177.01593414210515), (110.21760700896185, 39.8878705917041), (64.42048042050465, 77.28756343335652)]",1,tangential,86.14,491.51,9.96,13.43,0.0855,4,,,,,0,0,0,0,,,,,0,22,22,139,,,,,,,,,,,,,,,space,0.2371652997098863,,,,,44,,,,,,,,,,,,,,,,,,,,,,,,,,,687.9545962000266,None,,,,,,,,,5,21,Female,2021_Dec_14_1001,uniform_mix,2021.2.3,59.88988643904216,
c4_mix_ref.xlsx,c4_mix_t.xlsx,c4_mix.xlsx,stims/contrast96.png,,96,46,0.4,44,"[(-100.0, -10.0), (-200.0, -130.0), (-80.0, 60.0), (-140.0, -60.0), (-100.0, -140.0), (70.0, -110.0), (100.0, 80.0), (-190.0, -10.0), (10.0, -100.0), (-60.0, -80.0), (-20.0, 100.0), (180.0, 120.0), (200.0, -140.0), (-30.0, -120.0), (-90.0, 120.0), (-130.0, 40.0), (110.0, 20.0), (-200.0, 90.0), (30.0, 120.0), (90.0, 140.0), (190.0, 10.0), (110.0, -60.0), (181.75376703397666, -168.1150206758729), (228.02311587713868, -94.8899295216998), (-72.61218435204174, 134.6506747060704), (-112.90594144139197, 102.79203525611973), (194.85303721152334, 84.50181444652156), (171.24353992662378, 153.4643125937042), (-117.1296276983269, 50.85374244260524), (-135.02622037777004, 20.937946059168297), (102.05988295362592, -78.48009126812087), (113.48050515154324, -46.515759456537936), (-191.16276421099374, 119.93968224704076), (-221.5771233715235, 70.17290439355884), (-41.357718408973255, -111.6671807187083), (-2.2188211229565127, -127.06815239139941), (186.0223796463399, -27.20532528493368), (181.26224371163335, 49.57951398517443), (120.6956423573323, 9.558310014034177), (108.3952632203623, 35.1834565211573), (48.187228456125766, 122.11552361449915), (11.542448339481183, 132.16804915646622), (114.59604438018957, 141.11386363119465), (75.90811639998026, 150.54186954717335)]","[(-100.0, -10.0), (-200.0, -130.0), (-80.0, 60.0), (-140.0, -60.0), (-100.0, -140.0), (70.0, -110.0), (100.0, 80.0), (-190.0, -10.0), (10.0, -100.0), (-60.0, -80.0), (-20.0, 100.0), (180.0, 120.0), (200.0, -140.0), (-30.0, -120.0), (-90.0, 120.0), (-130.0, 40.0), (110.0, 20.0), (-200.0, 90.0), (30.0, 120.0), (90.0, 140.0), (190.0, 10.0), (110.0, -60.0)]","[(181.75376703397666, -168.1150206758729), (228.02311587713868, -94.8899295216998), (-72.61218435204174, 134.6506747060704), (-112.90594144139197, 102.79203525611973), (194.85303721152334, 84.50181444652156), (171.24353992662378, 153.4643125937042), (-117.1296276983269, 50.85374244260524), (-135.02622037777004, 20.937946059168297), (102.05988295362592, -78.48009126812087), (113.48050515154324, -46.515759456537936), (-191.16276421099374, 119.93968224704076), (-221.5771233715235, 70.17290439355884), (-41.357718408973255, -111.6671807187083), (-2.2188211229565127, -127.06815239139941), (186.0223796463399, -27.20532528493368), (181.26224371163335, 49.57951398517443), (120.6956423573323, 9.558310014034177), (108.3952632203623, 35.1834565211573), (48.187228456125766, 122.11552361449915), (11.542448339481183, 132.16804915646622), (114.59604438018957, 141.11386363119465), (75.90811639998026, 150.54186954717335)]",0,tangential,88.32,513.72,10.43,13.93,0.0856,4,,,,,0,0,0,0,,,,,0,23,23,95,,,,,,,,,,,,,,,space,0.18118679989129305,,,,,50,,,,,,,,,,,,,,,,,,,,,,,,,,,690.9563791998662,None,,,,,,,,,5,21,Female,2021_Dec_14_1001,uniform_mix,2021.2.3,59.88988643904216,
c4_mix_ref.xlsx,c4_mix_t.xlsx,c4_mix.xlsx,stims/contrast59.png,,59,3924,0.4,38,"[(70.0, -90.0), (30.0, 110.0), (50.0, -140.0), (-80.0, 60.0), (130.0, -70.0), (170.0, 0.0), (-120.0, 20.0), (-180.0, -130.0), (-190.0, 60.0), (0.0, -100.0), (-20.0, 140.0), (100.0, 20.0), (-100.0, 110.0), (-150.0, -50.0), (170.0, -140.0), (140.0, 80.0), (-50.0, -130.0), (-80.0, -60.0), (80.0, 100.0), (59.846386883421715, -75.17548601832982), (18.396648684278993, 101.2910259956363), (37.354827885556844, -125.19544086805767), (-72.06255886087152, 51.17198878395881), (114.80801808612387, -49.94566337475524), (145.10133594864482, -4.322589159748533), (-96.75760845525824, 19.636911069090388), (-146.24921653228313, -98.2597694887782), (-154.20683766954335, 48.425447676930254), (3.769219669219197, -113.36316592653307), (-27.601720970808774, 173.94844338667878), (111.2980995326151, 23.549267895533433), (-124.19036694267359, 134.7518625008029), (-186.26292420950932, -61.12412311234854), (178.53736108668554, -168.89182057282818), (173.2104294355204, 92.22854874072951), (-63.94968748224392, -150.85237695719442), (-86.856187742257, -71.12630142650022), (100.61991477963066, 124.27366797095493)]","[(70.0, -90.0), (30.0, 110.0), (50.0, -140.0), (-80.0, 60.0), (130.0, -70.0), (170.0, 0.0), (-120.0, 20.0), (-180.0, -130.0), (-190.0, 60.0), (0.0, -100.0), (-20.0, 140.0), (100.0, 20.0), (-100.0, 110.0), (-150.0, -50.0), (170.0, -140.0), (140.0, 80.0), (-50.0, -130.0), (-80.0, -60.0), (80.0, 100.0)]","[(59.846386883421715, -75.17548601832982), (18.396648684278993, 101.2910259956363), (37.354827885556844, -125.19544086805767), (-72.06255886087152, 51.17198878395881), (114.80801808612387, -49.94566337475524), (145.10133594864482, -4.322589159748533), (-96.75760845525824, 19.636911069090388), (-146.24921653228313, -98.2597694887782), (-154.20683766954335, 48.425447676930254), (3.769219669219197, -113.36316592653307), (-27.601720970808774, 173.94844338667878), (111.2980995326151, 23.549267895533433), (-124.19036694267359, 134.7518625008029), (-186.26292420950932, -61.12412311234854), (178.53736108668554, -168.89182057282818), (173.2104294355204, 92.22854874072951), (-63.94968748224392, -150.85237695719442), (-86.856187742257, -71.12630142650022), (100.61991477963066, 124.27366797095493)]",1,radial,80.71,444.38,9.51,12.84,0.0855,3,,,,,0,0,0,0,,,,,0,24,24,58,,,,,,,,,,,,,,,space,0.1564672002568841,,,,,53,,,,,,,,,,,,,,,,,,,,,,,,,,,694.5297077000141,None,,,,,,,,,5,21,Female,2021_Dec_14_1001,uniform_mix,2021.2.3,59.88988643904216,
c4_mix_ref.xlsx,c4_mix_t.xlsx,c4_mix.xlsx,stims/contrastsub5.png,,5,None,0.4,3,"[(-140.0, 0.0), (160.0, -20.0), (190.0, 130.0)]",None,None,None,None,None,None,None,None,None,None,,,,,0,0,0,0,,,,,0,25,25,148,,,,,,,,,,,,,,,space,0.2718244004063308,,,,,2,,,,,,,,,,,,,,,,,,,,,,,,,,,699.0642579002306,None,,,,,,,,,5,21,Female,2021_Dec_14_1001,uniform_mix,2021.2.3,59.88988643904216,
c4_mix_ref.xlsx,c4_mix_t.xlsx,c4_mix.xlsx,stims/contrast68.png,,68,2357,0.4,42,"[(130.0, 100.0), (-100.0, 120.0), (60.0, -110.0), (100.0, 20.0), (-40.0, 120.0), (-110.0, -60.0), (-190.0, 140.0), (150.0, -10.0), (-90.0, 60.0), (10.0, 110.0), (-60.0, -130.0), (-170.0, -140.0), (-140.0, -10.0), (-150.0, 60.0), (-60.0, -80.0), (-10.0, -120.0), (60.0, 140.0), (60.0, 80.0), (190.0, 60.0), (170.0, -120.0), (80.0, -60.0), (116.24037613564481, 87.08775365936198), (-78.45991862100526, 105.35042902624218), (44.20843857596978, -102.70447010621447), (82.96011680677938, 22.822475330634468), (-35.380162775763544, 104.87447386364911), (-96.78765192700419, -47.44577366182608), (-164.44461858682797, 121.66801296886696), (122.84129453061072, -14.547153727849079), (-73.4496586467462, 45.6968058775239), (14.252788813465385, 92.7129223494069), (-69.30499728812012, -141.5634867148737), (-186.83327500868782, -167.18328225460158), (-174.60447946342663, -10.986981498188808), (-172.74895530206857, 63.50281920633725), (-71.29557766917914, -100.41591155510133), (-12.79279368191311, -132.9019681377435), (69.29997775851314, 159.571547525119), (73.96242089063607, 92.10049967199252), (220.66639455674294, 72.00878491896141), (200.94590833911502, -130.11946270780754), (96.54214168071151, -62.753951969013926)]","[(130.0, 100.0), (-100.0, 120.0), (60.0, -110.0), (100.0, 20.0), (-40.0, 120.0), (-110.0, -60.0), (-190.0, 140.0), (150.0, -10.0), (-90.0, 60.0), (10.0, 110.0), (-60.0, -130.0), (-170.0, -140.0), (-140.0, -10.0), (-150.0, 60.0), (-60.0, -80.0), (-10.0, -120.0), (60.0, 140.0), (60.0, 80.0), (190.0, 60.0), (170.0, -120.0), (80.0, -60.0)]","[(116.24037613564481, 87.08775365936198), (-78.45991862100526, 105.35042902624218), (44.20843857596978, -102.70447010621447), (82.96011680677938, 22.822475330634468), (-35.380162775763544, 104.87447386364911), (-96.78765192700419, -47.44577366182608), (-164.44461858682797, 121.66801296886696), (122.84129453061072, -14.547153727849079), (-73.4496586467462, 45.6968058775239), (14.252788813465385, 92.7129223494069), (-69.30499728812012, -141.5634867148737), (-186.83327500868782, -167.18328225460158), (-174.60447946342663, -10.986981498188808), (-172.74895530206857, 63.50281920633725), (-71.29557766917914, -100.41591155510133), (-12.79279368191311, -132.9019681377435), (69.29997775851314, 159.571547525119), (73.96242089063607, 92.10049967199252), (220.66639455674294, 72.00878491896141), (200.94590833911502, -130.11946270780754), (96.54214168071151, -62.753951969013926)]",1,radial,87.35,490.95,9.59,13,0.0855,4,,,,,0,0,0,0,,,,,0,26,26,67,,,,,,,,,,,,,,,space,0.16684840014204383,,,,,50,,,,,,,,,,,,,,,,,,,,,,,,,,,701.5177695001476,None,,,,,,,,,5,21,Female,2021_Dec_14_1001,uniform_mix,2021.2.3,59.88988643904216,
c4_mix_ref.xlsx,c4_mix_t.xlsx,c4_mix.xlsx,stims/contrast27.png,,27,394,0.4,34,"[(-140.0, -60.0), (-80.0, 120.0), (120.0, -40.0), (-150.0, 110.0), (70.0, 90.0), (200.0, -90.0), (-80.0, -100.0), (180.0, 10.0), (-20.0, -130.0), (80.0, -120.0), (160.0, 110.0), (-170.0, 20.0), (-100.0, 20.0), (10.0, 110.0), (-140.0, -130.0), (20.0, -100.0), (120.0, 40.0), (-83.79512995212944, 23.102343040385293), (159.93502305745295, 17.889110164104437), (141.0223981072837, 90.40163172276564), (95.19506048505825, 31.619150970820705), (-188.98920607821478, 10.716615215826074), (-25.830970046933494, -146.5286168411991), (8.94006210807045, 125.70423050214612), (-89.85411811301026, -121.35552581398251), (214.74617499533306, -112.97856313373875), (55.19885720349418, 84.64750614056697), (84.23948620071484, 103.76648785737025), (-116.08882545892068, -113.39879509845468), (-171.61236991370538, -142.78886288598184), (61.16414040193848, -109.78809262009946), (97.68957873929139, -125.92642234662435), (23.087773371575906, -84.6905412611039), (17.27389722906019, -116.01119481348351)]","[(-140.0, -60.0), (-80.0, 120.0), (120.0, -40.0), (-150.0, 110.0), (70.0, 90.0), (200.0, -90.0), (-80.0, -100.0), (180.0, 10.0), (-20.0, -130.0), (80.0, -120.0), (160.0, 110.0), (-170.0, 20.0), (-100.0, 20.0), (10.0, 110.0), (-140.0, -130.0), (20.0, -100.0), (120.0, 40.0)]","[(-83.79512995212944, 23.102343040385293), (159.93502305745295, 17.889110164104437), (141.0223981072837, 90.40163172276564), (95.19506048505825, 31.619150970820705), (-188.98920607821478, 10.716615215826074), (-25.830970046933494, -146.5286168411991), (8.94006210807045, 125.70423050214612), (-89.85411811301026, -121.35552581398251), (214.74617499533306, -112.97856313373875), (55.19885720349418, 84.64750614056697), (84.23948620071484, 103.76648785737025), (-116.08882545892068, -113.39879509845468), (-171.61236991370538, -142.78886288598184), (61.16414040193848, -109.78809262009946), (97.68957873929139, -125.92642234662435), (23.087773371575906, -84.6905412611039), (17.27389722906019, -116.01119481348351)]",0.5,radial,77.96,396.19,9.64,12.84,0.0858,3,,,,,0,0,0,0,,,,,0,27,27,26,,,,,,,,,,,,,,,space,0.3501495998352766,,,,,25,,,,,,,,,,,,,,,,,,,,,,,,,,,715.0164842000231,None,,,,,,,,,5,21,Female,2021_Dec_14_1001,uniform_mix,2021.2.3,59.88988643904216,
c4_mix_ref.xlsx,c4_mix_t.xlsx,c4_mix.xlsx,stims/contrast85.png,,85,3730,0.4,40,"[(-100.0, -20.0), (-120.0, 70.0), (140.0, 10.0), (190.0, -110.0), (170.0, 100.0), (-190.0, 140.0), (-60.0, 130.0), (-170.0, 20.0), (-110.0, -70.0), (-80.0, -130.0), (90.0, 140.0), (-180.0, -130.0), (100.0, 60.0), (110.0, -50.0), (60.0, 80.0), (-60.0, 80.0), (20.0, 140.0), (-20.0, -130.0), (20.0, -100.0), (100.0, -120.0), (-50.34592257957651, 94.98802977972528), (-71.1351564584776, 75.84225242076397), (80.19315939412425, 69.28296395701953), (51.933158333626935, 92.35448885939812), (9.495262978199122, -99.92451775614109), (34.29082742380888, -105.19663183000517), (-204.74943366227322, -121.4830224806087), (-162.281888188273, -168.3244786201517), (80.45740069487675, -137.09719204942175), (128.40521385437026, -94.1900120310359), (39.55677585086622, 136.93919697160877), (5.64131917788356, 151.39748355868164), (119.56137434576397, 126.91963934157674), (62.08895314477337, 164.26388615493335), (-51.41937297330804, -123.91097983038243), (11.440717884608347, -132.96087924356289), (108.09699684230704, -68.67294328649085), (115.59371013758567, -25.763222193730016), (109.94063028241274, 41.664554102100766), (94.21751920688224, 77.11710853798974)]","[(-100.0, -20.0), (-120.0, 70.0), (140.0, 10.0), (190.0, -110.0), (170.0, 100.0), (-190.0, 140.0), (-60.0, 130.0), (-170.0, 20.0), (-110.0, -70.0), (-80.0, -130.0), (90.0, 140.0), (-180.0, -130.0), (100.0, 60.0), (110.0, -50.0), (60.0, 80.0), (-60.0, 80.0), (20.0, 140.0), (-20.0, -130.0), (20.0, -100.0), (100.0, -120.0)]","[(-50.34592257957651, 94.98802977972528), (-71.1351564584776, 75.84225242076397), (80.19315939412425, 69.28296395701953), (51.933158333626935, 92.35448885939812), (9.495262978199122, -99.92451775614109), (34.29082742380888, -105.19663183000517), (-204.74943366227322, -121.4830224806087), (-162.281888188273, -168.3244786201517), (80.45740069487675, -137.09719204942175), (128.40521385437026, -94.1900120310359), (39.55677585086622, 136.93919697160877), (5.64131917788356, 151.39748355868164), (119.56137434576397, 126.91963934157674), (62.08895314477337, 164.26388615493335), (-51.41937297330804, -123.91097983038243), (11.440717884608347, -132.96087924356289), (108.09699684230704, -68.67294328649085), (115.59371013758567, -25.763222193730016), (109.94063028241274, 41.664554102100766), (94.21751920688224, 77.11710853798974)]",0,tangential,83.28,468.58,9.51,12.73,0.0854,1,,,,,0,0,0,0,,,,,0,28,28,84,,,,,,,,,,,,,,,space,0.21349050011485815,,,,,35,,,,,,,,,,,,,,,,,,,,,,,,,,,719.996526400093,None,,,,,,,,,5,21,Female,2021_Dec_14_1001,uniform_mix,2021.2.3,59.88988643904216,
c4_mix_ref.xlsx,c4_mix_t.xlsx,c4_mix.xlsx,stims/contrast16.png,,16,523,0.4,40,"[(20.0, 100.0), (-110.0, 130.0), (-170.0, 30.0), (-40.0, 120.0), (180.0, -120.0), (40.0, -130.0), (-100.0, -40.0), (100.0, 10.0), (190.0, 60.0), (90.0, -90.0), (-100.0, 10.0), (-160.0, -100.0), (50.0, 140.0), (-30.0, -100.0), (120.0, 100.0), (-80.0, 60.0), (70.0, 80.0), (-200.0, 120.0), (140.0, -30.0), (-80.0, -90.0), (-61.84772580795637, 47.595997815306), (-96.16136685838805, 76.05798102717546), (57.79675046086379, 68.01331726071689), (81.77962421911303, 89.7043259377152), (125.62367070663939, -19.177587600496917), (154.9063969169841, -33.840516367504634), (-21.71666859466247, -77.25380898295516), (-35.85607133573312, -121.71998986902207), (-125.789876880304, -92.33976797281974), (-195.3986410233664, -110.55548626974044), (100.70832889380661, 80.27405617559155), (143.7610636934514, 126.16343951291428), (48.000823016044514, 110.46157821941793), (58.97393165320047, 161.2970595748078), (-81.85146211066605, 14.290069709106918), (-118.9531723573568, 6.862066040821112), (-176.87165198211966, 101.35647664692459), (-242.30941806519695, 154.91295924008915), (-66.01660908326318, -81.77073435880138), (-87.29700252244733, -103.34479463943921)]","[(20.0, 100.0), (-110.0, 130.0), (-170.0, 30.0), (-40.0, 120.0), (180.0, -120.0), (40.0, -130.0), (-100.0, -40.0), (100.0, 10.0), (190.0, 60.0), (90.0, -90.0), (-100.0, 10.0), (-160.0, -100.0), (50.0, 140.0), (-30.0, -100.0), (120.0, 100.0), (-80.0, 60.0), (70.0, 80.0), (-200.0, 120.0), (140.0, -30.0), (-80.0, -90.0)]","[(-61.84772580795637, 47.595997815306), (-96.16136685838805, 76.05798102717546), (57.79675046086379, 68.01331726071689), (81.77962421911303, 89.7043259377152), (125.62367070663939, -19.177587600496917), (154.9063969169841, -33.840516367504634), (-21.71666859466247, -77.25380898295516), (-35.85607133573312, -121.71998986902207), (-125.789876880304, -92.33976797281974), (-195.3986410233664, -110.55548626974044), (100.70832889380661, 80.27405617559155), (143.7610636934514, 126.16343951291428), (48.000823016044514, 110.46157821941793), (58.97393165320047, 161.2970595748078), (-81.85146211066605, 14.290069709106918), (-118.9531723573568, 6.862066040821112), (-176.87165198211966, 101.35647664692459), (-242.30941806519695, 154.91295924008915), (-66.01660908326318, -81.77073435880138), (-87.29700252244733, -103.34479463943921)]",0,radial,85.1,467.7,9.31,12.52,0.0855,4,,,,,0,0,0,0,,,,,0,29,29,15,,,,,,,,,,,,,,,space,0.2649389002472162,,,,,47,,,,,,,,,,,,,,,,,,,,,,,,,,,723.4626096002758,None,,,,,,,,,5,21,Female,2021_Dec_14_1001,uniform_mix,2021.2.3,59.88988643904216,
c4_mix_ref.xlsx,c4_mix_t.xlsx,c4_mix.xlsx,stims/contrast24.png,,24,3563,0.4,44,"[(-130.0, -40.0), (80.0, 60.0), (-90.0, -120.0), (-200.0, 0.0), (-150.0, 120.0), (170.0, -40.0), (100.0, 110.0), (-50.0, 140.0), (120.0, 0.0), (40.0, -100.0), (-30.0, -120.0), (-170.0, -100.0), (-110.0, 10.0), (200.0, 130.0), (-120.0, 60.0), (-70.0, 90.0), (-80.0, -60.0), (10.0, 130.0), (200.0, 40.0), (100.0, -60.0), (100.0, -120.0), (180.0, -130.0), (-100.4995515599257, 48.403471118576746), (-135.7374520976016, 70.21986413166685), (168.19141807514197, 101.05102722707066), (251.2239535984329, 156.82027301979147), (-86.21789410247315, 10.635723645167225), (-136.1995712567405, 10.514839245263117), (18.533101772943173, 113.6137054606252), (11.3152632856675, 159.61597483962385), (-65.45562280561101, 76.33721952966133), (-78.18356363036405, 111.33755353291599), (-131.52036488053693, -90.00253226125174), (-193.25022936151808, -122.98869279105428), (79.29193597930717, -55.1238763203948), (110.27272623750116, -74.22009216018259), (92.89449300511491, -101.39844587764458), (121.57971512346762, -133.4849065080164), (144.40598971308742, -104.57102188436929), (207.15447022281728, -157.96226402981097), (165.29477138685638, 36.0241359105197), (223.3672789167246, 27.799792198021038), (-61.576209350457276, -47.77816202258518), (-92.32281760149976, -74.31199255775077)]","[(-130.0, -40.0), (80.0, 60.0), (-90.0, -120.0), (-200.0, 0.0), (-150.0, 120.0), (170.0, -40.0), (100.0, 110.0), (-50.0, 140.0), (120.0, 0.0), (40.0, -100.0), (-30.0, -120.0), (-170.0, -100.0), (-110.0, 10.0), (200.0, 130.0), (-120.0, 60.0), (-70.0, 90.0), (-80.0, -60.0), (10.0, 130.0), (200.0, 40.0), (100.0, -60.0), (100.0, -120.0), (180.0, -130.0)]","[(-100.4995515599257, 48.403471118576746), (-135.7374520976016, 70.21986413166685), (168.19141807514197, 101.05102722707066), (251.2239535984329, 156.82027301979147), (-86.21789410247315, 10.635723645167225), (-136.1995712567405, 10.514839245263117), (18.533101772943173, 113.6137054606252), (11.3152632856675, 159.61597483962385), (-65.45562280561101, 76.33721952966133), (-78.18356363036405, 111.33755353291599), (-131.52036488053693, -90.00253226125174), (-193.25022936151808, -122.98869279105428), (79.29193597930717, -55.1238763203948), (110.27272623750116, -74.22009216018259), (92.89449300511491, -101.39844587764458), (121.57971512346762, -133.4849065080164), (144.40598971308742, -104.57102188436929), (207.15447022281728, -157.96226402981097), (165.29477138685638, 36.0241359105197), (223.3672789167246, 27.799792198021038), (-61.576209350457276, -47.77816202258518), (-92.32281760149976, -74.31199255775077)]",0,radial,90.25,514.82,10.09,13.59,0.0855,4,,,,,0,0,0,0,,,,,0,30,30,23,,,,,,,,,,,,,,,space,0.20363839995115995,,,,,49,,,,,,,,,,,,,,,,,,,,,,,,,,,728.3787437002175,None,,,,,,,,,5,21,Female,2021_Dec_14_1001,uniform_mix,2021.2.3,59.88988643904216,
c4_mix_ref.xlsx,c4_mix_t.xlsx,c4_mix.xlsx,stims/contrast126.png,,126,4163,0.4,36,"[(50.0, -130.0), (90.0, -80.0), (120.0, 0.0), (-150.0, 10.0), (-190.0, -110.0), (-190.0, 100.0), (190.0, 130.0), (20.0, 100.0), (-90.0, 60.0), (-120.0, 130.0), (-20.0, -140.0), (90.0, 50.0), (-100.0, -10.0), (160.0, -70.0), (-20.0, 140.0), (70.0, 100.0), (-90.0, -90.0), (200.0, 0.0), (31.788286580603312, -134.86041337667257), (79.1988154397335, -101.12887704888838), (120.20093264104493, -21.81886141761541), (-150.01733376646348, 26.172764098178334), (-219.5199148126153, -65.41181502088517), (-169.79245319030827, 117.13539522407751), (199.69551146266204, 102.49988529368787), (44.16666620622681, 93.4031643885398), (-86.41238954514364, 74.75124831176157), (-126.86945212133216, 104.11821021461316), (2.790837976853453, -147.97985333942816), (91.68312846269787, 63.23713342032697), (-102.73912695158835, -30.917536440502985), (174.37583345354923, -51.0800199984464), (-51.19995088462643, 133.10046599356906), (62.21403837948036, 112.31451667497824), (-68.17510737860974, -105.42862830604383), (184.7225437582609, 25.548481384851698)]","[(50.0, -130.0), (90.0, -80.0), (120.0, 0.0), (-150.0, 10.0), (-190.0, -110.0), (-190.0, 100.0), (190.0, 130.0), (20.0, 100.0), (-90.0, 60.0), (-120.0, 130.0), (-20.0, -140.0), (90.0, 50.0), (-100.0, -10.0), (160.0, -70.0), (-20.0, 140.0), (70.0, 100.0), (-90.0, -90.0), (200.0, 0.0)]","[(31.788286580603312, -134.86041337667257), (79.1988154397335, -101.12887704888838), (120.20093264104493, -21.81886141761541), (-150.01733376646348, 26.172764098178334), (-219.5199148126153, -65.41181502088517), (-169.79245319030827, 117.13539522407751), (199.69551146266204, 102.49988529368787), (44.16666620622681, 93.4031643885398), (-86.41238954514364, 74.75124831176157), (-126.86945212133216, 104.11821021461316), (2.790837976853453, -147.97985333942816), (91.68312846269787, 63.23713342032697), (-102.73912695158835, -30.917536440502985), (174.37583345354923, -51.0800199984464), (-51.19995088462643, 133.10046599356906), (62.21403837948036, 112.31451667497824), (-68.17510737860974, -105.42862830604383), (184.7225437582609, 25.548481384851698)]",1,tangential,78.21,421.42,9.83,13.21,0.0854,2,,,,,0,0,0,0,,,,,0,31,31,125,,,,,,,,,,,,,,,space,0.21101960027590394,,,,,39,,,,,,,,,,,,,,,,,,,,,,,,,,,731.1554364999756,None,,,,,,,,,5,21,Female,2021_Dec_14_1001,uniform_mix,2021.2.3,59.88988643904216,
c4_mix_ref.xlsx,c4_mix_t.xlsx,c4_mix.xlsx,stims/contrast46.png,,46,4395,0.4,44,"[(-70.0, -80.0), (0.0, -100.0), (170.0, 130.0), (200.0, 10.0), (-120.0, 80.0), (170.0, -80.0), (130.0, 30.0), (-190.0, 90.0), (80.0, 140.0), (-200.0, -50.0), (90.0, -140.0), (80.0, 80.0), (-110.0, -40.0), (-100.0, -140.0), (100.0, -10.0), (30.0, 110.0), (-200.0, -140.0), (-100.0, 140.0), (-140.0, 10.0), (-30.0, -140.0), (-40.0, 120.0), (70.0, -80.0), (102.81106962693465, 32.22348328381298), (-151.56648052234675, -123.71494490651504), (85.8307758451052, -7.045369304762632), (-168.72992383607016, -58.42651176340803), (-34.049830877742465, 100.33521255750864), (-165.75693064908674, 71.86498896125845), (-127.25193137984498, -46.44423720649286), (105.23235472536227, -162.22269188762542), (-119.49902350471251, -170.8394924435505), (103.08982576026692, 167.93715358788427), (190.56804250143537, -83.14308140718981), (-36.66178107475818, -172.00212498014582), (67.35011033987715, 70.76006786094473), (94.23862281252791, 87.80760458953554), (-95.42005098373593, 114.86617386617142), (-113.12437450441315, 171.38751390635917), (23.450899298936235, 92.97978142962714), (25.86316870282097, 127.76304261009417), (-105.97748431862098, 6.93813911198443), (-171.8368184940423, 13.421906713514021), (65.04492618071575, -70.06844945166387), (79.58508098938509, -86.38235644565424)]","[(-70.0, -80.0), (0.0, -100.0), (170.0, 130.0), (200.0, 10.0), (-120.0, 80.0), (170.0, -80.0), (130.0, 30.0), (-190.0, 90.0), (80.0, 140.0), (-200.0, -50.0), (90.0, -140.0), (80.0, 80.0), (-110.0, -40.0), (-100.0, -140.0), (100.0, -10.0), (30.0, 110.0), (-200.0, -140.0), (-100.0, 140.0), (-140.0, 10.0), (-30.0, -140.0), (-40.0, 120.0), (70.0, -80.0)]","[(102.81106962693465, 32.22348328381298), (-151.56648052234675, -123.71494490651504), (85.8307758451052, -7.045369304762632), (-168.72992383607016, -58.42651176340803), (-34.049830877742465, 100.33521255750864), (-165.75693064908674, 71.86498896125845), (-127.25193137984498, -46.44423720649286), (105.23235472536227, -162.22269188762542), (-119.49902350471251, -170.8394924435505), (103.08982576026692, 167.93715358788427), (190.56804250143537, -83.14308140718981), (-36.66178107475818, -172.00212498014582), (67.35011033987715, 70.76006786094473), (94.23862281252791, 87.80760458953554), (-95.42005098373593, 114.86617386617142), (-113.12437450441315, 171.38751390635917), (23.450899298936235, 92.97978142962714), (25.86316870282097, 127.76304261009417), (-105.97748431862098, 6.93813911198443), (-171.8368184940423, 13.421906713514021), (65.04492618071575, -70.06844945166387), (79.58508098938509, -86.38235644565424)]",0.5,radial,83.8,514.98,9.89,13.34,0.0854,2,,,,,0,0,0,0,,,,,0,32,32,45,,,,,,,,,,,,,,,space,0.3473686999641359,,,,,38,,,,,,,,,,,,,,,,,,,,,,,,,,,734.2432160000317,None,,,,,,,,,5,21,Female,2021_Dec_14_1001,uniform_mix,2021.2.3,59.88988643904216,
c4_mix_ref.xlsx,c4_mix_t.xlsx,c4_mix.xlsx,stims/contrast72.png,,72,4001,0.4,44,"[(-40.0, -120.0), (-160.0, -20.0), (-110.0, 30.0), (-190.0, 140.0), (80.0, -140.0), (-190.0, -100.0), (-200.0, 50.0), (-110.0, 90.0), (80.0, 60.0), (-100.0, -30.0), (-80.0, -80.0), (100.0, -10.0), (-110.0, -140.0), (120.0, 30.0), (200.0, -110.0), (10.0, 100.0), (170.0, -10.0), (20.0, -100.0), (170.0, 100.0), (110.0, -80.0), (-40.0, 110.0), (70.0, 140.0), (-40.37125742738133, -99.68258580917698), (-137.0719723975476, -7.7538547280814), (-94.28494540338366, 31.538218226030253), (-164.78051679799432, 105.74607611430787), (78.4728522906978, -116.48514526208098), (-159.2907829529666, -94.69464175532381), (-161.07933943082338, 49.826269573081206), (-104.29455474566058, 70.87417515004294), (74.49730120588471, 50.25091786781727), (-87.5524182642658, -36.233147252102384), (-70.86756200016323, -72.53806508287849), (112.75580399657181, -16.65923437934875), (-113.4219066238671, -166.50577502518064), (136.80283256586597, 27.48920115917), (229.24623033343966, -124.88084012967222), (16.32375308357586, 113.42296817210098), (199.6800830629535, -17.396936422740975), (22.18171021383339, -124.52000537403543), (200.7279314710612, 106.48186618504201), (130.53661985888647, -86.15632055765622), (-48.30979809705749, 123.67217242552516), (89.17764684700545, 171.7535411068621)]","[(-40.0, -120.0), (-160.0, -20.0), (-110.0, 30.0), (-190.0, 140.0), (80.0, -140.0), (-190.0, -100.0), (-200.0, 50.0), (-110.0, 90.0), (80.0, 60.0), (-100.0, -30.0), (-80.0, -80.0), (100.0, -10.0), (-110.0, -140.0), (120.0, 30.0), (200.0, -110.0), (10.0, 100.0), (170.0, -10.0), (20.0, -100.0), (170.0, 100.0), (110.0, -80.0), (-40.0, 110.0), (70.0, 140.0)]","[(-40.37125742738133, -99.68258580917698), (-137.0719723975476, -7.7538547280814), (-94.28494540338366, 31.538218226030253), (-164.78051679799432, 105.74607611430787), (78.4728522906978, -116.48514526208098), (-159.2907829529666, -94.69464175532381), (-161.07933943082338, 49.826269573081206), (-104.29455474566058, 70.87417515004294), (74.49730120588471, 50.25091786781727), (-87.5524182642658, -36.233147252102384), (-70.86756200016323, -72.53806508287849), (112.75580399657181, -16.65923437934875), (-113.4219066238671, -166.50577502518064), (136.80283256586597, 27.48920115917), (229.24623033343966, -124.88084012967222), (16.32375308357586, 113.42296817210098), (199.6800830629535, -17.396936422740975), (22.18171021383339, -124.52000537403543), (200.7279314710612, 106.48186618504201), (130.53661985888647, -86.15632055765622), (-48.30979809705749, 123.67217242552516), (89.17764684700545, 171.7535411068621)]",1,radial,87.1,514.4,9.82,13.27,0.0855,4,,,,,0,0,0,0,,,,,0,33,33,71,,,,,,,,,,,,,,,space,0.2405222998932004,,,,,40,,,,,,,,,,,,,,,,,,,,,,,,,,,738.3445834000595,None,,,,,,,,,5,21,Female,2021_Dec_14_1001,uniform_mix,2021.2.3,59.88988643904216,
c4_mix_ref.xlsx,c4_mix_t.xlsx,c4_mix.xlsx,stims/contrast74.png,,74,4272,0.4,34,"[(-90.0, 120.0), (-110.0, -40.0), (200.0, -130.0), (-10.0, 100.0), (-200.0, 50.0), (140.0, 110.0), (50.0, 120.0), (-200.0, 140.0), (110.0, 50.0), (20.0, -110.0), (-100.0, -90.0), (170.0, 0.0), (-100.0, 20.0), (-40.0, -120.0), (-200.0, -80.0), (90.0, -100.0), (110.0, -20.0), (97.76353086109236, 75.97519474175536), (-51.103857912282706, -105.88927052101818), (-20.386181334990226, -115.73842531712705), (-3.1497680494804285, -118.39089196398619), (45.18152609200658, -102.60999637602528), (182.82074041423377, -22.33817102103052), (175.65441738953623, 22.904815751878687), (73.60552737102876, -101.5388934995949), (100.9350092394138, -79.48694988017759), (-121.65709244430886, -81.09102490460654), (-88.69556947706167, -97.88849891537117), (-95.1799647980057, 31.001299808779635), (-104.8108959680869, 9.947375257263218), (-218.73163231825194, -63.284437592771496), (-186.4880096108807, -111.57911731510538), (108.41668982979645, -45.58610898452575), (116.81416454281225, -2.5821718538738736)]","[(-90.0, 120.0), (-110.0, -40.0), (200.0, -130.0), (-10.0, 100.0), (-200.0, 50.0), (140.0, 110.0), (50.0, 120.0), (-200.0, 140.0), (110.0, 50.0), (20.0, -110.0), (-100.0, -90.0), (170.0, 0.0), (-100.0, 20.0), (-40.0, -120.0), (-200.0, -80.0), (90.0, -100.0), (110.0, -20.0)]","[(97.76353086109236, 75.97519474175536), (-51.103857912282706, -105.88927052101818), (-20.386181334990226, -115.73842531712705), (-3.1497680494804285, -118.39089196398619), (45.18152609200658, -102.60999637602528), (182.82074041423377, -22.33817102103052), (175.65441738953623, 22.904815751878687), (73.60552737102876, -101.5388934995949), (100.9350092394138, -79.48694988017759), (-121.65709244430886, -81.09102490460654), (-88.69556947706167, -97.88849891537117), (-95.1799647980057, 31.001299808779635), (-104.8108959680869, 9.947375257263218), (-218.73163231825194, -63.284437592771496), (-186.4880096108807, -111.57911731510538), (108.41668982979645, -45.58610898452575), (116.81416454281225, -2.5821718538738736)]",0,tangential,81.12,404.38,9.55,12.62,0.0841,2,,,,,0,0,0,0,,,,,0,34,34,73,,,,,,,,,,,,,,,space,0.15450200019404292,,,,,44,,,,,,,,,,,,,,,,,,,,,,,,,,,741.6414107000455,None,,,,,,,,,5,21,Female,2021_Dec_14_1001,uniform_mix,2021.2.3,59.88988643904216,
c4_mix_ref.xlsx,c4_mix_t.xlsx,c4_mix.xlsx,stims/contrast15.png,,15,351,0.4,40,"[(-90.0, 50.0), (-200.0, -10.0), (60.0, -110.0), (140.0, -20.0), (110.0, 50.0), (-100.0, -20.0), (-70.0, -140.0), (170.0, 40.0), (200.0, 120.0), (-90.0, 110.0), (110.0, 130.0), (-80.0, -80.0), (-160.0, 70.0), (50.0, 90.0), (-30.0, 110.0), (-10.0, -120.0), (190.0, -110.0), (90.0, -50.0), (-150.0, -110.0), (30.0, 140.0), (-124.16155824176153, 52.373258134989015), (-190.71965730062107, 81.31850811641775), (-17.62457456634352, 93.00940683755398), (-25.14325286280372, 124.50432074439455), (95.57197875992973, 99.17402156963573), (131.35132172045826, 158.2862316239153), (-120.96382319327451, -103.84419320949341), (-180.03498096951608, -120.84725571980914), (150.30571273959958, -86.59144120787056), (232.38447986386382, -132.1271537008179), (-65.3249199485804, -64.22811667889681), (-95.04093897853036, -85.40705975881481), (42.791759660584205, 75.11976922244169), (49.87261940499431, 102.05946668002659), (-10.38489064145313, -101.88170848839081), (-11.598563544620369, -142.61465354698893), (30.801890397545016, 118.72796252794674), (42.96921187444286, 159.19504525886623), (72.84794543804209, -39.210101197685276), (102.39984667874572, -60.74107422694542)]","[(-90.0, 50.0), (-200.0, -10.0), (60.0, -110.0), (140.0, -20.0), (110.0, 50.0), (-100.0, -20.0), (-70.0, -140.0), (170.0, 40.0), (200.0, 120.0), (-90.0, 110.0), (110.0, 130.0), (-80.0, -80.0), (-160.0, 70.0), (50.0, 90.0), (-30.0, 110.0), (-10.0, -120.0), (190.0, -110.0), (90.0, -50.0), (-150.0, -110.0), (30.0, 140.0)]","[(-124.16155824176153, 52.373258134989015), (-190.71965730062107, 81.31850811641775), (-17.62457456634352, 93.00940683755398), (-25.14325286280372, 124.50432074439455), (95.57197875992973, 99.17402156963573), (131.35132172045826, 158.2862316239153), (-120.96382319327451, -103.84419320949341), (-180.03498096951608, -120.84725571980914), (150.30571273959958, -86.59144120787056), (232.38447986386382, -132.1271537008179), (-65.3249199485804, -64.22811667889681), (-95.04093897853036, -85.40705975881481), (42.791759660584205, 75.11976922244169), (49.87261940499431, 102.05946668002659), (-10.38489064145313, -101.88170848839081), (-11.598563544620369, -142.61465354698893), (30.801890397545016, 118.72796252794674), (42.96921187444286, 159.19504525886623), (72.84794543804209, -39.210101197685276), (102.39984667874572, -60.74107422694542)]",0,radial,84.18,467.9,9.53,12.89,0.0855,3,,,,,0,0,0,0,,,,,0,35,35,14,,,,,,,,,,,,,,,space,0.159115900285542,,,,,36,,,,,,,,,,,,,,,,,,,,,,,,,,,745.7191185001284,None,,,,,,,,,5,21,Female,2021_Dec_14_1001,uniform_mix,2021.2.3,59.88988643904216,
c4_mix_ref.xlsx,c4_mix_t.xlsx,c4_mix.xlsx,stims/contrastsub8.png,,8,None,0.4,4,"[(50.0, -130.0), (-110.0, 90.0), (160.0, 30.0), (140.0, -110.0)]",None,None,None,None,None,None,None,None,None,None,,,,,0,0,0,0,,,,,0,36,36,151,,,,,,,,,,,,,,,space,0.44391580019146204,,,,,4,,,,,,,,,,,,,,,,,,,,,,,,,,,752.904876800254,None,,,,,,,,,5,21,Female,2021_Dec_14_1001,uniform_mix,2021.2.3,59.88988643904216,
c4_mix_ref.xlsx,c4_mix_t.xlsx,c4_mix.xlsx,stims/contrast62.png,,62,475,0.4,40,"[(-60.0, 80.0), (-60.0, 140.0), (110.0, 50.0), (-100.0, 20.0), (170.0, 100.0), (100.0, -20.0), (70.0, 110.0), (120.0, -70.0), (160.0, 10.0), (-90.0, -50.0), (-170.0, -90.0), (-150.0, -20.0), (0.0, 100.0), (200.0, -60.0), (-30.0, -110.0), (-90.0, -120.0), (110.0, -140.0), (-190.0, 50.0), (40.0, -100.0), (-130.0, 100.0), (-45.61634278768709, 70.06387682653306), (-55.555407378846084, 121.91181147285616), (95.75666865185396, 45.026348216123196), (-76.81376262910146, 17.8477172351597), (144.25561379293754, 75.35984788859598), (76.5141994772795, -17.92120244847539), (53.96284475327593, 95.00386889380248), (98.28669839350168, -62.48701856685605), (134.73278957381797, 19.915200093671192), (-73.30014316737453, -36.57717704589794), (-192.1465021248101, -115.26965036327255), (-164.21768080899705, -32.06807376693927), (-4.142592372563444, 116.13773316738036), (248.15123244907258, -74.99472978584595), (-37.13878440964251, -128.16451246645548), (-100.74742827562854, -142.58644052160705), (135.90417087660657, -169.67686987184445), (-218.7518161628372, 53.41198180025733), (48.75489056128928, -122.33169490843194), (-149.91342377356779, 116.31737105200509)]","[(-60.0, 80.0), (-60.0, 140.0), (110.0, 50.0), (-100.0, 20.0), (170.0, 100.0), (100.0, -20.0), (70.0, 110.0), (120.0, -70.0), (160.0, 10.0), (-90.0, -50.0), (-170.0, -90.0), (-150.0, -20.0), (0.0, 100.0), (200.0, -60.0), (-30.0, -110.0), (-90.0, -120.0), (110.0, -140.0), (-190.0, 50.0), (40.0, -100.0), (-130.0, 100.0)]","[(-45.61634278768709, 70.06387682653306), (-55.555407378846084, 121.91181147285616), (95.75666865185396, 45.026348216123196), (-76.81376262910146, 17.8477172351597), (144.25561379293754, 75.35984788859598), (76.5141994772795, -17.92120244847539), (53.96284475327593, 95.00386889380248), (98.28669839350168, -62.48701856685605), (134.73278957381797, 19.915200093671192), (-73.30014316737453, -36.57717704589794), (-192.1465021248101, -115.26965036327255), (-164.21768080899705, -32.06807376693927), (-4.142592372563444, 116.13773316738036), (248.15123244907258, -74.99472978584595), (-37.13878440964251, -128.16451246645548), (-100.74742827562854, -142.58644052160705), (135.90417087660657, -169.67686987184445), (-218.7518161628372, 53.41198180025733), (48.75489056128928, -122.33169490843194), (-149.91342377356779, 116.31737105200509)]",1,radial,82.63,467.84,9.48,12.9,0.0855,2,,,,,0,0,0,0,,,,,0,37,37,61,,,,,,,,,,,,,,,space,0.6288465997204185,,,,,26,,,,,,,,,,,,,,,,,,,,,,,,,,,756.5897519001737,None,,,,,,,,,5,21,Female,2021_Dec_14_1001,uniform_mix,2021.2.3,59.88988643904216,
