reference,test_blockOrder,blockOrder,imageFile,num,index,n,winsize,numerosity,allposis,centralposis,extraposis,perceptpairs,protectzonetype,convexhull,occupancyarea,averageeccentricity,averagespacing,density,display_i,p_trials.thisRepN,p_trials.thisTrialN,p_trials.thisN,p_trials.thisIndex,blocks.thisRepN,blocks.thisTrialN,blocks.thisN,blocks.thisIndex,trials_2.thisRepN,trials_2.thisTrialN,trials_2.thisN,trials_2.thisIndex,trials.thisRepN,trials.thisTrialN,trials.thisN,trials.thisIndex,key_resp.keys,key_resp.rt,key_resp_14.keys,key_resp_14.rt,key_resp_15.keys,key_resp_15.rt,key_resp_16.keys,key_resp_16.rt,key_resp_17.keys,key_resp_17.rt,key_resp_18.keys,key_resp_18.rt,key_resp_19.keys,key_resp_19.rt,key_resp_26.keys,key_resp_26.rt,p_img.started,p_img.stopped,text_14.started,text_14.stopped,responseN,key_resp_4.keys,key_resp_4.rt,text_20.started,text_20.stopped,key_resp_20.keys,key_resp_20.rt,key_resp_20.started,key_resp_20.stopped,key_resp_22.keys,key_resp_22.rt,key_resp_5.keys,key_resp_5.rt,image_2.started,image_2.stopped,blank.started,blank.stopped,text_21.started,text_21.stopped,key_resp_7.keys,key_resp_7.rt,key_resp_7.started,key_resp_7.stopped,key_resp_8.keys,key_resp_8.rt,key_resp_23.keys,key_resp_23.rt,image.started,image.stopped,text_31.started,text_31.stopped,text_32.started,text_32.stopped,key_resp_2.keys,key_resp_2.rt,thanksm.started,thanksm.stopped,participant,age,sex,date,expName,psychopyVersion,frameRate,
,,,,,,,,,,,,,,,,,,,,,,,,,,,,,,,,,,,,space,14.513851599767804,,,,,,,,,,,,,,,,,,,,,,,,,,,,,,,,,,,,,,,,,,,,,,,,,,,,,,,,7,20,Female,2021_Dec_14_1359,uniform_mix,2021.2.3,59.77704354153201,
,,,,,,,,,,,,,,,,,,,,,,,,,,,,,,,,,,,,,,space,0.29284900007769465,,,,,,,,,,,,,,,,,,,,,,,,,,,,,,,,,,,,,,,,,,,,,,,,,,,,,,7,20,Female,2021_Dec_14_1359,uniform_mix,2021.2.3,59.77704354153201,
,,,,,,,,,,,,,,,,,,,,,,,,,,,,,,,,,,,,,,,,space,0.21877619996666908,,,,,,,,,,,,,,,,,,,,,,,,,,,,,,,,,,,,,,,,,,,,,,,,,,,,7,20,Female,2021_Dec_14_1359,uniform_mix,2021.2.3,59.77704354153201,
,,,,,,,,,,,,,,,,,,,,,,,,,,,,,,,,,,,,,,,,,,space,0.17794669978320599,,,,,,,,,,,,,,,,,,,,,,,,,,,,,,,,,,,,,,,,,,,,,,,,,,7,20,Female,2021_Dec_14_1359,uniform_mix,2021.2.3,59.77704354153201,
,,,,,,,,,,,,,,,,,,,,,,,,,,,,,,,,,,,,,,,,,,,,space,0.19829290034249425,,,,,,,,,,,,,,,,,,,,,,,,,,,,,,,,,,,,,,,,,,,,,,,,7,20,Female,2021_Dec_14_1359,uniform_mix,2021.2.3,59.77704354153201,
,,,,,,,,,,,,,,,,,,,,,,,,,,,,,,,,,,,,,,,,,,,,,,space,20.736006000079215,,,,,,,,,,,,,,,,,,,,,,,,,,,,,,,,,,,,,,,,,,,,,,7,20,Female,2021_Dec_14_1359,uniform_mix,2021.2.3,59.77704354153201,
,,,,,,,,,,,,,,,,,,,,,,,,,,,,,,,,,,,,,,,,,,,,,,,,space,0.5677367998287082,space,1.8066165000200272,277.73560689995065,277.9101745998487,277.9101745998487,None,,space,0.8296437999233603,,,,,,,,,,,,,,,,,,,,,,,,,,,,,,,,,,,7,20,Female,2021_Dec_14_1359,uniform_mix,2021.2.3,59.77704354153201,
,,,,,,,,,,,,,,,,,,,,,,,,,,,,,,,,,,,,,,,,,,,,,,,,,,,,,,,,,,,279.43315109983087,None,space,0.47948059998452663,279.43315109983087,None,,,,,,,,,,,,,,,,,,,,,,,,,,,,,7,20,Female,2021_Dec_14_1359,uniform_mix,2021.2.3,59.77704354153201,
c4_white_ref.xlsx,c4_white_t.xlsx,c4_white.xlsx,stims/whiteref4.png,44,,,,,,,,,,,,,,,,,,,,0,0,0,0,0,0,0,3,,,,,,,,,,,,,,,,,,,space,0.46827160008251667,,,,,,,,,,,,,,n,27.380901100113988,space,2.7295329002663493,311.7425009999424,311.9188521998003,311.9188521998003,None,312.17469500005245,None,space,0.7286601001396775,312.17469500005245,None,space,0.508700099773705,,,,,,,,,,,,,7,20,Female,2021_Dec_14_1359,uniform_mix,2021.2.3,59.77704354153201,
c4_white_ref.xlsx,c4_white_t.xlsx,c4_white.xlsx,stims/whiteref5.png,49,,,,,,,,,,,,,,,,,,,,0,0,0,0,0,1,1,4,,,,,,,,,,,,,,,,,,,space,0.6483849999494851,,,,,,,,,,,,,,n,0.8559670001268387,space,0.8244402999989688,316.98561509978026,317.1693277996965,317.1693277996965,None,317.4200682998635,None,space,0.6681615998968482,317.4200682998635,None,space,1.506370899733156,,,,,,,,,,,,,7,20,Female,2021_Dec_14_1359,uniform_mix,2021.2.3,59.77704354153201,
c4_white_ref.xlsx,c4_white_t.xlsx,c4_white.xlsx,stims/whiteref1.png,29,,,,,,,,,,,,,,,,,,,,0,0,0,0,0,2,2,0,,,,,,,,,,,,,,,,,,,space,0.47961549973115325,,,,,,,,,,,,,,n,0.5174992000684142,space,0.8131458996795118,322.6277343998663,322.80301539972425,322.80301539972425,None,323.0575295998715,None,space,0.8781170002184808,323.0575295998715,None,space,1.4854863998480141,,,,,,,,,,,,,7,20,Female,2021_Dec_14_1359,uniform_mix,2021.2.3,59.77704354153201,
c4_white_ref.xlsx,c4_white_t.xlsx,c4_white.xlsx,stims/whiteref2.png,34,,,,,,,,,,,,,,,,,,,,0,0,0,0,0,3,3,1,,,,,,,,,,,,,,,,,,,space,0.4240350998006761,,,,,,,,,,,,,,n,0.2862480999901891,space,0.625834499951452,327.9745211000554,328.1502898000181,328.1502898000181,None,328.4017286999151,None,space,0.8370214998722076,328.4017286999151,None,space,1.2113720998167992,,,,,,,,,,,,,7,20,Female,2021_Dec_14_1359,uniform_mix,2021.2.3,59.77704354153201,
c4_white_ref.xlsx,c4_white_t.xlsx,c4_white.xlsx,stims/whiteref3.png,39,,,,,,,,,,,,,,,,,,,,0,0,0,0,0,4,4,2,,,,,,,,,,,,,,,,,,,space,0.8533361000008881,,,,,,,,,,,,,,n,0.48644910007715225,space,2.1575865000486374,335.1454228996299,335.32510929973796,335.32510929973796,None,335.5716769997962,None,space,1.4364910000003874,335.5716769997962,None,space,1.6271754996851087,,,,,,,,,,,,,7,20,Female,2021_Dec_14_1359,uniform_mix,2021.2.3,59.77704354153201,
c4_white_ref.xlsx,c4_white_t.xlsx,c4_white.xlsx,stims/white117.png,,117,2325,0.4,44,"[(40.0, 100.0), (0.0, 130.0), (90.0, 120.0), (80.0, -60.0), (80.0, 60.0), (150.0, 70.0), (-90.0, 130.0), (-170.0, -120.0), (-80.0, 60.0), (-120.0, 30.0), (-170.0, -40.0), (200.0, -50.0), (190.0, -140.0), (-170.0, 100.0), (-80.0, -80.0), (-50.0, -130.0), (100.0, -120.0), (-40.0, 100.0), (-100.0, -20.0), (140.0, 0.0), (20.0, -140.0), (200.0, 140.0), (-177.89397379234276, -11.452606370900725), (178.20028475182684, -183.29835088414768), (182.6645933726373, -94.55679051683683), (150.43367059171428, -14.323121417446018), (-76.438048056304, 147.62033738774394), (3.283322589312064, -148.53779303931867), (110.36288457838913, -101.06729622921553), (-183.71475479489163, 72.6383043773281), (129.3614784178097, 85.13725252478241), (-127.47429087460976, 13.33595989781216), (-73.52362715995845, -94.26061181346145), (-82.96198045506361, 47.96219501326968), (-193.4080033896936, -82.83215614701396), (-139.56771772491166, -146.18999894942885), (-98.12448014462367, -2.4565917520826304), (-98.72287479953641, -38.86326726257235), (-79.44295028491011, -122.1883942991105), (-18.370221873874783, -136.21708769066228), (237.66731424238372, 94.61576659063948), (172.39722119709512, 152.88014662154416), (-19.093603609879736, 106.93186256638221), (-52.32428050984507, 87.23590976236555)]","[(40.0, 100.0), (0.0, 130.0), (90.0, 120.0), (80.0, -60.0), (80.0, 60.0), (150.0, 70.0), (-90.0, 130.0), (-170.0, -120.0), (-80.0, 60.0), (-120.0, 30.0), (-170.0, -40.0), (200.0, -50.0), (190.0, -140.0), (-170.0, 100.0), (-80.0, -80.0), (-50.0, -130.0), (100.0, -120.0), (-40.0, 100.0), (-100.0, -20.0), (140.0, 0.0), (20.0, -140.0), (200.0, 140.0)]","[(-177.89397379234276, -11.452606370900725), (178.20028475182684, -183.29835088414768), (182.6645933726373, -94.55679051683683), (150.43367059171428, -14.323121417446018), (-76.438048056304, 147.62033738774394), (3.283322589312064, -148.53779303931867), (110.36288457838913, -101.06729622921553), (-183.71475479489163, 72.6383043773281), (129.3614784178097, 85.13725252478241), (-127.47429087460976, 13.33595989781216), (-73.52362715995845, -94.26061181346145), (-82.96198045506361, 47.96219501326968), (-193.4080033896936, -82.83215614701396), (-139.56771772491166, -146.18999894942885), (-98.12448014462367, -2.4565917520826304), (-98.72287479953641, -38.86326726257235), (-79.44295028491011, -122.1883942991105), (-18.370221873874783, -136.21708769066228), (237.66731424238372, 94.61576659063948), (172.39722119709512, 152.88014662154416), (-19.093603609879736, 106.93186256638221), (-52.32428050984507, 87.23590976236555)]",0.5,tangential,86.26,515.38,10.19,13.75,0.0854,1,,,,,0,0,0,0,,,,,0,0,0,116,,,,,,,,,,,,,,,space,1.0952527998015285,,,,,50,,,,,,,,,,,,,,,,,,,,,,,,,space,6.7899985001422465,346.9096694998443,None,,,,,,,,,7,20,Female,2021_Dec_14_1359,uniform_mix,2021.2.3,59.77704354153201,
c4_white_ref.xlsx,c4_white_t.xlsx,c4_white.xlsx,stims/white55.png,,55,4035,0.4,36,"[(-180.0, 140.0), (200.0, 140.0), (-60.0, 100.0), (-110.0, 40.0), (-190.0, 50.0), (140.0, -90.0), (-20.0, -100.0), (-110.0, -50.0), (100.0, 140.0), (70.0, 80.0), (50.0, -110.0), (-70.0, -100.0), (180.0, 30.0), (-160.0, -110.0), (110.0, 40.0), (100.0, -30.0), (-140.0, -10.0), (0.0, 130.0), (-154.61509064585178, 128.80036837931453), (152.9597388670566, 108.31841369391486), (-43.878942063268006, 82.80644387787196), (-101.42744502454477, 28.3763270290099), (-157.91301762328922, 50.30045245504739), (119.27759404843033, -71.7324061223013), (-15.75672577902464, -80.12720488548999), (-94.82909330861548, -41.261216623649176), (77.58598734621832, 112.18331535768044), (86.28028023177279, 99.96755278283942), (48.34800424621207, -129.45515340075642), (-79.85150926896141, -117.02945001796459), (209.25122353555665, 31.324241609597742), (-183.93463923987747, -128.37091833911632), (126.30880274539524, 38.727183769892626), (120.63568840490373, -38.26897764987863), (-163.5973260883385, -15.683069059897832), (1.4257495147274195, 147.16136416686538)]","[(-180.0, 140.0), (200.0, 140.0), (-60.0, 100.0), (-110.0, 40.0), (-190.0, 50.0), (140.0, -90.0), (-20.0, -100.0), (-110.0, -50.0), (100.0, 140.0), (70.0, 80.0), (50.0, -110.0), (-70.0, -100.0), (180.0, 30.0), (-160.0, -110.0), (110.0, 40.0), (100.0, -30.0), (-140.0, -10.0), (0.0, 130.0)]","[(-154.61509064585178, 128.80036837931453), (152.9597388670566, 108.31841369391486), (-43.878942063268006, 82.80644387787196), (-101.42744502454477, 28.3763270290099), (-157.91301762328922, 50.30045245504739), (119.27759404843033, -71.7324061223013), (-15.75672577902464, -80.12720488548999), (-94.82909330861548, -41.261216623649176), (77.58598734621832, 112.18331535768044), (86.28028023177279, 99.96755278283942), (48.34800424621207, -129.45515340075642), (-79.85150926896141, -117.02945001796459), (209.25122353555665, 31.324241609597742), (-183.93463923987747, -128.37091833911632), (126.30880274539524, 38.727183769892626), (120.63568840490373, -38.26897764987863), (-163.5973260883385, -15.683069059897832), (1.4257495147274195, 147.16136416686538)]",1,radial,80.51,422.2,9.66,12.98,0.0853,3,,,,,0,0,0,0,,,,,0,1,1,54,,,,,,,,,,,,,,,space,0.518180999904871,,,,,45,,,,,,,,,,,,,,,,,,,,,,,,,,,349.3256161999889,None,,,,,,,,,7,20,Female,2021_Dec_14_1359,uniform_mix,2021.2.3,59.77704354153201,
c4_white_ref.xlsx,c4_white_t.xlsx,c4_white.xlsx,stims/white57.png,,57,333,0.4,38,"[(-160.0, -110.0), (-70.0, -80.0), (60.0, 120.0), (-80.0, -140.0), (30.0, -110.0), (-130.0, 10.0), (190.0, -10.0), (-100.0, 50.0), (-30.0, 100.0), (130.0, -120.0), (-90.0, 100.0), (100.0, -10.0), (150.0, 100.0), (-20.0, -100.0), (100.0, -60.0), (100.0, 40.0), (-190.0, -20.0), (-110.0, -40.0), (-160.0, 140.0), (-141.33571613767498, -91.52011366467553), (-55.77715604247684, -77.23571709410389), (47.49689752522405, 110.72505621455913), (-66.09843928153963, -106.18185951650706), (21.203527869265038, -98.93060902475221), (-114.2340194420255, 6.837225495459657), (147.96811821876958, -13.377077697135276), (-93.99185492787758, 36.07644828018017), (-31.43389113402072, 86.760436287193), (146.40875788570065, -140.73895618939733), (-108.09701557581346, 108.27067674282337), (123.3324372618417, -10.679862529973821), (168.20042794671718, 123.25111098391638), (-24.842938384522466, -116.42957133967586), (105.23890997493938, -75.0675222648622), (109.13058780556094, 49.026244838923645), (-219.84382070512095, -12.03289242049927), (-126.20743293798833, -36.80935171345955), (-196.3016840453899, 162.48591787840303)]","[(-160.0, -110.0), (-70.0, -80.0), (60.0, 120.0), (-80.0, -140.0), (30.0, -110.0), (-130.0, 10.0), (190.0, -10.0), (-100.0, 50.0), (-30.0, 100.0), (130.0, -120.0), (-90.0, 100.0), (100.0, -10.0), (150.0, 100.0), (-20.0, -100.0), (100.0, -60.0), (100.0, 40.0), (-190.0, -20.0), (-110.0, -40.0), (-160.0, 140.0)]","[(-141.33571613767498, -91.52011366467553), (-55.77715604247684, -77.23571709410389), (47.49689752522405, 110.72505621455913), (-66.09843928153963, -106.18185951650706), (21.203527869265038, -98.93060902475221), (-114.2340194420255, 6.837225495459657), (147.96811821876958, -13.377077697135276), (-93.99185492787758, 36.07644828018017), (-31.43389113402072, 86.760436287193), (146.40875788570065, -140.73895618939733), (-108.09701557581346, 108.27067674282337), (123.3324372618417, -10.679862529973821), (168.20042794671718, 123.25111098391638), (-24.842938384522466, -116.42957133967586), (105.23890997493938, -75.0675222648622), (109.13058780556094, 49.026244838923645), (-219.84382070512095, -12.03289242049927), (-126.20743293798833, -36.80935171345955), (-196.3016840453899, 162.48591787840303)]",1,radial,81.3,444.58,9.33,12.51,0.0855,1,,,,,0,0,0,0,,,,,0,2,2,56,,,,,,,,,,,,,,,space,0.39065980026498437,,,,,30,,,,,,,,,,,,,,,,,,,,,,,,,,,351.293769699987,None,,,,,,,,,7,20,Female,2021_Dec_14_1359,uniform_mix,2021.2.3,59.77704354153201,
c4_white_ref.xlsx,c4_white_t.xlsx,c4_white.xlsx,stims/white130.png,,130,1085,0.4,38,"[(190.0, 70.0), (-100.0, -70.0), (-190.0, -140.0), (-70.0, -140.0), (100.0, 70.0), (100.0, 20.0), (180.0, -50.0), (20.0, 110.0), (-80.0, 100.0), (-20.0, -110.0), (-150.0, -20.0), (80.0, -60.0), (-30.0, 140.0), (110.0, -130.0), (40.0, -120.0), (80.0, 140.0), (200.0, -140.0), (-150.0, 100.0), (-110.0, 20.0), (211.56227979370482, 36.34933511450771), (-108.17255685002414, -58.660136916403786), (-216.42120283349755, -127.42603633986192), (-104.47360150703705, -122.02434992222312), (102.33408745683587, 53.31378305204697), (107.96061704197396, -1.7648751800567908), (172.77161118365382, -75.11924152752385), (43.08532952317134, 101.34462537908033), (-77.00850254540481, 115.99149860945846), (-6.7146578962674255, -108.53129307761617), (-139.13993169955046, -52.37527654976036), (92.34686691436886, -52.993608029645614), (-54.73480651896219, 136.39171314095515), (121.4267523754408, -110.57812310138517), (53.41859853841821, -117.67455199989703), (50.336369147503376, 162.16331839173793), (218.99014379726452, -107.92394360232481), (-159.9114694038094, 70.07851672975072), (-109.14536797775392, -5.048637316912675)]","[(190.0, 70.0), (-100.0, -70.0), (-190.0, -140.0), (-70.0, -140.0), (100.0, 70.0), (100.0, 20.0), (180.0, -50.0), (20.0, 110.0), (-80.0, 100.0), (-20.0, -110.0), (-150.0, -20.0), (80.0, -60.0), (-30.0, 140.0), (110.0, -130.0), (40.0, -120.0), (80.0, 140.0), (200.0, -140.0), (-150.0, 100.0), (-110.0, 20.0)]","[(211.56227979370482, 36.34933511450771), (-108.17255685002414, -58.660136916403786), (-216.42120283349755, -127.42603633986192), (-104.47360150703705, -122.02434992222312), (102.33408745683587, 53.31378305204697), (107.96061704197396, -1.7648751800567908), (172.77161118365382, -75.11924152752385), (43.08532952317134, 101.34462537908033), (-77.00850254540481, 115.99149860945846), (-6.7146578962674255, -108.53129307761617), (-139.13993169955046, -52.37527654976036), (92.34686691436886, -52.993608029645614), (-54.73480651896219, 136.39171314095515), (121.4267523754408, -110.57812310138517), (53.41859853841821, -117.67455199989703), (50.336369147503376, 162.16331839173793), (218.99014379726452, -107.92394360232481), (-159.9114694038094, 70.07851672975072), (-109.14536797775392, -5.048637316912675)]",1,tangential,82.16,444.35,9.96,13.4,0.0855,2,,,,,0,0,0,0,,,,,0,3,3,129,,,,,,,,,,,,,,,space,0.4158787000924349,,,,,55,,,,,,,,,,,,,,,,,,,,,,,,,,,353.5092672999017,None,,,,,,,,,7,20,Female,2021_Dec_14_1359,uniform_mix,2021.2.3,59.77704354153201,
c4_white_ref.xlsx,c4_white_t.xlsx,c4_white.xlsx,stims/white14.png,,14,63,0.4,40,"[(-80.0, 110.0), (10.0, 100.0), (-200.0, -60.0), (110.0, -70.0), (110.0, -20.0), (-110.0, -120.0), (30.0, -100.0), (-10.0, -120.0), (-100.0, 60.0), (70.0, 140.0), (190.0, -140.0), (100.0, -140.0), (200.0, -50.0), (100.0, 30.0), (170.0, 80.0), (-60.0, -90.0), (100.0, 90.0), (-110.0, -20.0), (-170.0, 10.0), (-160.0, 120.0), (85.05175744866723, 29.193257090899653), (122.57911427843642, 33.96682538896632), (81.2917868088835, 81.87936931545977), (125.20953945124342, 109.27814750917913), (142.9283440697722, 72.15312182069924), (199.63415616579698, 83.52368964780948), (-48.235069475981554, -72.68230626954067), (-60.11136025659697, -106.79398133272065), (-128.2235536663171, 97.64853368511889), (-195.55117635157382, 137.11781609681043), (-87.95125827091799, -16.93135548673264), (-130.077699611909, -27.710354678563366), (74.33679513281332, -107.13307168079146), (115.71424477482797, -158.00078400654215), (155.77882476418563, -109.41696992358632), (217.2283304282976, -176.47110490503815), (154.63900575666688, -49.579674561506685), (223.30714826687483, -38.50836081774594), (-146.1243803448294, 21.956110298507713), (-189.4033531741668, 3.4583399968723576)]","[(-80.0, 110.0), (10.0, 100.0), (-200.0, -60.0), (110.0, -70.0), (110.0, -20.0), (-110.0, -120.0), (30.0, -100.0), (-10.0, -120.0), (-100.0, 60.0), (70.0, 140.0), (190.0, -140.0), (100.0, -140.0), (200.0, -50.0), (100.0, 30.0), (170.0, 80.0), (-60.0, -90.0), (100.0, 90.0), (-110.0, -20.0), (-170.0, 10.0), (-160.0, 120.0)]","[(85.05175744866723, 29.193257090899653), (122.57911427843642, 33.96682538896632), (81.2917868088835, 81.87936931545977), (125.20953945124342, 109.27814750917913), (142.9283440697722, 72.15312182069924), (199.63415616579698, 83.52368964780948), (-48.235069475981554, -72.68230626954067), (-60.11136025659697, -106.79398133272065), (-128.2235536663171, 97.64853368511889), (-195.55117635157382, 137.11781609681043), (-87.95125827091799, -16.93135548673264), (-130.077699611909, -27.710354678563366), (74.33679513281332, -107.13307168079146), (115.71424477482797, -158.00078400654215), (155.77882476418563, -109.41696992358632), (217.2283304282976, -176.47110490503815), (154.63900575666688, -49.579674561506685), (223.30714826687483, -38.50836081774594), (-146.1243803448294, 21.956110298507713), (-189.4033531741668, 3.4583399968723576)]",0,radial,85.52,467.91,10.16,13.53,0.0855,2,,,,,0,0,0,0,,,,,0,4,4,13,,,,,,,,,,,,,,,space,0.7170152002945542,,,,,40,,,,,,,,,,,,,,,,,,,,,,,,,,,355.7028783997521,None,,,,,,,,,7,20,Female,2021_Dec_14_1359,uniform_mix,2021.2.3,59.77704354153201,
c4_white_ref.xlsx,c4_white_t.xlsx,c4_white.xlsx,stims/white38.png,,38,1742,0.4,40,"[(30.0, -100.0), (-50.0, -90.0), (110.0, 100.0), (-50.0, 130.0), (150.0, 10.0), (-140.0, 80.0), (200.0, -50.0), (-80.0, 90.0), (190.0, -140.0), (-110.0, -50.0), (190.0, 100.0), (-120.0, 20.0), (100.0, -60.0), (-100.0, -110.0), (-190.0, -140.0), (40.0, 120.0), (-20.0, -130.0), (80.0, -130.0), (100.0, 30.0), (-190.0, -20.0), (73.10839302961892, -107.66170236703377), (-126.58873827874493, 57.48139916743696), (-12.764998873733663, -107.96990447842865), (-63.669766460324816, 83.33282934589533), (-168.16378935660822, -111.02363616337314), (49.922121563555976, 133.11035056360925), (-136.35094439659193, -63.981059693871046), (225.33142119674218, 112.12554916916895), (-209.87488991402142, -21.95363357578113), (111.71221282919645, -74.3607076241781), (91.84240760681764, 18.368843033686975), (117.95905981230572, 28.64115318862377), (-77.15821491115825, -101.32299600447347), (-117.46637480141686, -129.59246965895622), (157.5117302913643, -130.1316952025905), (224.55844927110013, -151.62161034058124), (179.59160655749199, -35.534936259315025), (233.0025563547943, -56.705155329824834), (-108.92399243308971, 12.15445586072412), (-143.6540833254559, 19.982394451679383)]","[(30.0, -100.0), (-50.0, -90.0), (110.0, 100.0), (-50.0, 130.0), (150.0, 10.0), (-140.0, 80.0), (200.0, -50.0), (-80.0, 90.0), (190.0, -140.0), (-110.0, -50.0), (190.0, 100.0), (-120.0, 20.0), (100.0, -60.0), (-100.0, -110.0), (-190.0, -140.0), (40.0, 120.0), (-20.0, -130.0), (80.0, -130.0), (100.0, 30.0), (-190.0, -20.0)]","[(73.10839302961892, -107.66170236703377), (-126.58873827874493, 57.48139916743696), (-12.764998873733663, -107.96990447842865), (-63.669766460324816, 83.33282934589533), (-168.16378935660822, -111.02363616337314), (49.922121563555976, 133.11035056360925), (-136.35094439659193, -63.981059693871046), (225.33142119674218, 112.12554916916895), (-209.87488991402142, -21.95363357578113), (111.71221282919645, -74.3607076241781), (91.84240760681764, 18.368843033686975), (117.95905981230572, 28.64115318862377), (-77.15821491115825, -101.32299600447347), (-117.46637480141686, -129.59246965895622), (157.5117302913643, -130.1316952025905), (224.55844927110013, -151.62161034058124), (179.59160655749199, -35.534936259315025), (233.0025563547943, -56.705155329824834), (-108.92399243308971, 12.15445586072412), (-143.6540833254559, 19.982394451679383)]",0.5,radial,85.2,468.05,10.27,13.66,0.0855,2,,,,,0,0,0,0,,,,,0,5,5,37,,,,,,,,,,,,,,,space,0.7003560997545719,,,,,50,,,,,,,,,,,,,,,,,,,,,,,,,,,358.90643199998885,None,,,,,,,,,7,20,Female,2021_Dec_14_1359,uniform_mix,2021.2.3,59.77704354153201,
c4_white_ref.xlsx,c4_white_t.xlsx,c4_white.xlsx,stims/white86.png,,86,239,0.4,40,"[(190.0, -140.0), (90.0, 100.0), (-120.0, -80.0), (30.0, 130.0), (-50.0, -110.0), (-170.0, 10.0), (-190.0, -60.0), (150.0, 20.0), (100.0, 50.0), (-100.0, 120.0), (-190.0, 110.0), (-40.0, 130.0), (200.0, -40.0), (190.0, 110.0), (-10.0, -140.0), (90.0, -120.0), (-100.0, -20.0), (-110.0, 30.0), (110.0, -30.0), (40.0, -100.0), (-105.21690646508748, -1.8606954608798532), (-102.14216892044797, -36.16226136380919), (63.13676163880152, -130.62683866146992), (111.45814543930322, -112.34521199707024), (-103.90032430924742, 42.98732242067982), (-119.70128718365898, 4.022576835962781), (-183.95350589336653, 147.1223876154523), (-208.66208786634257, 70.01337533996355), (19.66931691634224, -101.74077110418713), (60.44281653327836, -91.07957998334467), (-17.075242129543597, 137.04616881919318), (-67.44211781030037, 127.74685977810847), (-35.991559496095235, -132.98665854882617), (21.89197481217741, -144.73343813978155), (184.3150735297279, -85.79967228506442), (217.89471420020686, -14.52552860100917), (218.67749620078078, 64.13318640516977), (169.23419265408643, 149.1644191291462), (108.60703615020215, -51.55390635760591), (114.0334055448894, -9.20199723952517)]","[(190.0, -140.0), (90.0, 100.0), (-120.0, -80.0), (30.0, 130.0), (-50.0, -110.0), (-170.0, 10.0), (-190.0, -60.0), (150.0, 20.0), (100.0, 50.0), (-100.0, 120.0), (-190.0, 110.0), (-40.0, 130.0), (200.0, -40.0), (190.0, 110.0), (-10.0, -140.0), (90.0, -120.0), (-100.0, -20.0), (-110.0, 30.0), (110.0, -30.0), (40.0, -100.0)]","[(-105.21690646508748, -1.8606954608798532), (-102.14216892044797, -36.16226136380919), (63.13676163880152, -130.62683866146992), (111.45814543930322, -112.34521199707024), (-103.90032430924742, 42.98732242067982), (-119.70128718365898, 4.022576835962781), (-183.95350589336653, 147.1223876154523), (-208.66208786634257, 70.01337533996355), (19.66931691634224, -101.74077110418713), (60.44281653327836, -91.07957998334467), (-17.075242129543597, 137.04616881919318), (-67.44211781030037, 127.74685977810847), (-35.991559496095235, -132.98665854882617), (21.89197481217741, -144.73343813978155), (184.3150735297279, -85.79967228506442), (217.89471420020686, -14.52552860100917), (218.67749620078078, 64.13318640516977), (169.23419265408643, 149.1644191291462), (108.60703615020215, -51.55390635760591), (114.0334055448894, -9.20199723952517)]",0,tangential,83.04,467.72,10.08,13.51,0.0855,2,,,,,0,0,0,0,,,,,0,6,6,85,,,,,,,,,,,,,,,space,0.3443311001174152,,,,,50,,,,,,,,,,,,,,,,,,,,,,,,,,,361.2452630996704,None,,,,,,,,,7,20,Female,2021_Dec_14_1359,uniform_mix,2021.2.3,59.77704354153201,
c4_white_ref.xlsx,c4_white_t.xlsx,c4_white.xlsx,stims/white96.png,,96,46,0.4,44,"[(-100.0, -10.0), (-200.0, -130.0), (-80.0, 60.0), (-140.0, -60.0), (-100.0, -140.0), (70.0, -110.0), (100.0, 80.0), (-190.0, -10.0), (10.0, -100.0), (-60.0, -80.0), (-20.0, 100.0), (180.0, 120.0), (200.0, -140.0), (-30.0, -120.0), (-90.0, 120.0), (-130.0, 40.0), (110.0, 20.0), (-200.0, 90.0), (30.0, 120.0), (90.0, 140.0), (190.0, 10.0), (110.0, -60.0), (181.75376703397666, -168.1150206758729), (228.02311587713868, -94.8899295216998), (-72.61218435204174, 134.6506747060704), (-112.90594144139197, 102.79203525611973), (194.85303721152334, 84.50181444652156), (171.24353992662378, 153.4643125937042), (-117.1296276983269, 50.85374244260524), (-135.02622037777004, 20.937946059168297), (102.05988295362592, -78.48009126812087), (113.48050515154324, -46.515759456537936), (-191.16276421099374, 119.93968224704076), (-221.5771233715235, 70.17290439355884), (-41.357718408973255, -111.6671807187083), (-2.2188211229565127, -127.06815239139941), (186.0223796463399, -27.20532528493368), (181.26224371163335, 49.57951398517443), (120.6956423573323, 9.558310014034177), (108.3952632203623, 35.1834565211573), (48.187228456125766, 122.11552361449915), (11.542448339481183, 132.16804915646622), (114.59604438018957, 141.11386363119465), (75.90811639998026, 150.54186954717335)]","[(-100.0, -10.0), (-200.0, -130.0), (-80.0, 60.0), (-140.0, -60.0), (-100.0, -140.0), (70.0, -110.0), (100.0, 80.0), (-190.0, -10.0), (10.0, -100.0), (-60.0, -80.0), (-20.0, 100.0), (180.0, 120.0), (200.0, -140.0), (-30.0, -120.0), (-90.0, 120.0), (-130.0, 40.0), (110.0, 20.0), (-200.0, 90.0), (30.0, 120.0), (90.0, 140.0), (190.0, 10.0), (110.0, -60.0)]","[(181.75376703397666, -168.1150206758729), (228.02311587713868, -94.8899295216998), (-72.61218435204174, 134.6506747060704), (-112.90594144139197, 102.79203525611973), (194.85303721152334, 84.50181444652156), (171.24353992662378, 153.4643125937042), (-117.1296276983269, 50.85374244260524), (-135.02622037777004, 20.937946059168297), (102.05988295362592, -78.48009126812087), (113.48050515154324, -46.515759456537936), (-191.16276421099374, 119.93968224704076), (-221.5771233715235, 70.17290439355884), (-41.357718408973255, -111.6671807187083), (-2.2188211229565127, -127.06815239139941), (186.0223796463399, -27.20532528493368), (181.26224371163335, 49.57951398517443), (120.6956423573323, 9.558310014034177), (108.3952632203623, 35.1834565211573), (48.187228456125766, 122.11552361449915), (11.542448339481183, 132.16804915646622), (114.59604438018957, 141.11386363119465), (75.90811639998026, 150.54186954717335)]",0,tangential,88.32,513.72,10.43,13.93,0.0856,4,,,,,0,0,0,0,,,,,0,7,7,95,,,,,,,,,,,,,,,space,0.36689590010792017,,,,,45,,,,,,,,,,,,,,,,,,,,,,,,,,,363.16229610005394,None,,,,,,,,,7,20,Female,2021_Dec_14_1359,uniform_mix,2021.2.3,59.77704354153201,
c4_white_ref.xlsx,c4_white_t.xlsx,c4_white.xlsx,stims/white60.png,,60,4012,0.4,38,"[(200.0, -10.0), (110.0, 120.0), (200.0, 130.0), (-80.0, -100.0), (20.0, 130.0), (-40.0, 100.0), (-90.0, -50.0), (-130.0, 120.0), (-200.0, 50.0), (-20.0, -130.0), (60.0, 80.0), (120.0, -120.0), (-100.0, 20.0), (60.0, -80.0), (-170.0, -140.0), (130.0, 60.0), (50.0, -130.0), (-140.0, -30.0), (110.0, -30.0), (176.22018081654278, 8.379627869948504), (89.60231408237442, 110.63185866221174), (167.7971479104226, 102.91911978758749), (-61.945113857669114, -79.41792694823943), (20.54716418167719, 108.85626001841524), (-34.967297143465814, 78.98676235251628), (-71.6675812442063, -43.89680681818402), (-99.07497521848373, 108.20119113942387), (-174.01050693427868, 45.76412290094797), (-21.774761561759924, -146.398207313527), (67.51674754599068, 95.35404754954197), (141.57144339448467, -146.90971814874635), (-122.49907841833806, 23.627017704372363), (67.23847412972066, -96.96727529851933), (-194.5218522107083, -153.85780872989312), (154.3031616076281, 69.40773039441697), (65.99554262067835, -149.87766938251468), (-165.28308956922382, -36.580133076131986), (128.1410934487085, -30.907834907392015)]","[(200.0, -10.0), (110.0, 120.0), (200.0, 130.0), (-80.0, -100.0), (20.0, 130.0), (-40.0, 100.0), (-90.0, -50.0), (-130.0, 120.0), (-200.0, 50.0), (-20.0, -130.0), (60.0, 80.0), (120.0, -120.0), (-100.0, 20.0), (60.0, -80.0), (-170.0, -140.0), (130.0, 60.0), (50.0, -130.0), (-140.0, -30.0), (110.0, -30.0)]","[(176.22018081654278, 8.379627869948504), (89.60231408237442, 110.63185866221174), (167.7971479104226, 102.91911978758749), (-61.945113857669114, -79.41792694823943), (20.54716418167719, 108.85626001841524), (-34.967297143465814, 78.98676235251628), (-71.6675812442063, -43.89680681818402), (-99.07497521848373, 108.20119113942387), (-174.01050693427868, 45.76412290094797), (-21.774761561759924, -146.398207313527), (67.51674754599068, 95.35404754954197), (141.57144339448467, -146.90971814874635), (-122.49907841833806, 23.627017704372363), (67.23847412972066, -96.96727529851933), (-194.5218522107083, -153.85780872989312), (154.3031616076281, 69.40773039441697), (65.99554262067835, -149.87766938251468), (-165.28308956922382, -36.580133076131986), (128.1410934487085, -30.907834907392015)]",1,radial,82.35,444.36,9.71,13.11,0.0855,4,,,,,0,0,0,0,,,,,0,8,8,59,,,,,,,,,,,,,,,space,0.546239500399679,,,,,39,,,,,,,,,,,,,,,,,,,,,,,,,,,369.8369942000136,None,,,,,,,,,7,20,Female,2021_Dec_14_1359,uniform_mix,2021.2.3,59.77704354153201,
c4_white_ref.xlsx,c4_white_t.xlsx,c4_white.xlsx,stims/whitesub3.png,,3,None,0.4,2,"[(150.0, 110.0), (-60.0, -120.0)]",None,None,None,None,None,None,None,None,None,None,,,,,0,0,0,0,,,,,0,9,9,146,,,,,,,,,,,,,,,space,0.9400129001587629,,,,,2,,,,,,,,,,,,,,,,,,,,,,,,,,,376.3427351000719,None,,,,,,,,,7,20,Female,2021_Dec_14_1359,uniform_mix,2021.2.3,59.77704354153201,
c4_white_ref.xlsx,c4_white_t.xlsx,c4_white.xlsx,stims/white123.png,,123,3796,0.4,34,"[(-120.0, -20.0), (-170.0, 30.0), (-150.0, 130.0), (140.0, -100.0), (130.0, 100.0), (-10.0, 100.0), (-100.0, 50.0), (90.0, 50.0), (60.0, 130.0), (30.0, -140.0), (-180.0, -120.0), (-60.0, 120.0), (80.0, -90.0), (-100.0, -100.0), (120.0, 0.0), (200.0, 20.0), (-20.0, -120.0), (-117.76181707984952, -0.8069498233695924), (-165.93698617175795, 61.39304259538673), (-125.73224763328156, 141.6204497462468), (138.94103550484635, -124.81146420788237), (134.56732824159317, 79.26000356445249), (1.3365252560164151, 106.08377002663988), (-85.30071485853644, 71.81885943004765), (92.93547397768468, 31.750412583422133), (48.63536329551059, 146.05334437934812), (45.627775159181795, -125.61343016556701), (-176.6907820716017, -144.20287056484298), (-73.48882457436338, 108.41427725660107), (83.38371469951994, -75.00148209996694), (-89.56212584130964, -116.05164416063224), (127.50241493367143, 21.70820609037372), (210.82065986478042, 53.33133656098579), (-2.240846547708003, -125.50484513826378)]","[(-120.0, -20.0), (-170.0, 30.0), (-150.0, 130.0), (140.0, -100.0), (130.0, 100.0), (-10.0, 100.0), (-100.0, 50.0), (90.0, 50.0), (60.0, 130.0), (30.0, -140.0), (-180.0, -120.0), (-60.0, 120.0), (80.0, -90.0), (-100.0, -100.0), (120.0, 0.0), (200.0, 20.0), (-20.0, -120.0)]","[(-117.76181707984952, -0.8069498233695924), (-165.93698617175795, 61.39304259538673), (-125.73224763328156, 141.6204497462468), (138.94103550484635, -124.81146420788237), (134.56732824159317, 79.26000356445249), (1.3365252560164151, 106.08377002663988), (-85.30071485853644, 71.81885943004765), (92.93547397768468, 31.750412583422133), (48.63536329551059, 146.05334437934812), (45.627775159181795, -125.61343016556701), (-176.6907820716017, -144.20287056484298), (-73.48882457436338, 108.41427725660107), (83.38371469951994, -75.00148209996694), (-89.56212584130964, -116.05164416063224), (127.50241493367143, 21.70820609037372), (210.82065986478042, 53.33133656098579), (-2.240846547708003, -125.50484513826378)]",1,tangential,76.83,397.81,9.64,12.97,0.0855,3,,,,,0,0,0,0,,,,,0,10,10,122,,,,,,,,,,,,,,,space,1.083795300219208,,,,,30,,,,,,,,,,,,,,,,,,,,,,,,,,,378.92024789983407,None,,,,,,,,,7,20,Female,2021_Dec_14_1359,uniform_mix,2021.2.3,59.77704354153201,
c4_white_ref.xlsx,c4_white_t.xlsx,c4_white.xlsx,stims/white76.png,,76,31,0.4,34,"[(180.0, 80.0), (90.0, 50.0), (-10.0, 130.0), (100.0, -80.0), (-130.0, -20.0), (-70.0, -100.0), (30.0, 100.0), (80.0, 100.0), (-140.0, -80.0), (200.0, -110.0), (120.0, -10.0), (-180.0, 90.0), (-10.0, -110.0), (-90.0, 100.0), (-100.0, 50.0), (200.0, -20.0), (40.0, -140.0), (-108.86244094333011, 38.115031280656), (201.73739930134445, -66.91590652832986), (185.29488846839416, 0.6023157936356256), (-79.1895540830445, 110.22239776417518), (-107.74796284143896, 90.67031067689037), (16.870671161834494, -140.83158621334528), (57.20071315528733, -125.15052202907877), (116.13821524104759, -39.47831198398258), (120.21659959880647, 6.060789351548607), (-22.631618180993115, -110.26477657702594), (8.35693779858029, -116.83012793251741), (-142.70564756586734, -57.7789601324738), (-126.45970803424913, -96.00884126116202), (175.0039582773502, -158.08628924580216), (210.90355333554172, -88.50154481773214), (-163.19298391976665, 129.71096745862894), (-205.83850348861358, 52.35440678027237)]","[(180.0, 80.0), (90.0, 50.0), (-10.0, 130.0), (100.0, -80.0), (-130.0, -20.0), (-70.0, -100.0), (30.0, 100.0), (80.0, 100.0), (-140.0, -80.0), (200.0, -110.0), (120.0, -10.0), (-180.0, 90.0), (-10.0, -110.0), (-90.0, 100.0), (-100.0, 50.0), (200.0, -20.0), (40.0, -140.0)]","[(-108.86244094333011, 38.115031280656), (201.73739930134445, -66.91590652832986), (185.29488846839416, 0.6023157936356256), (-79.1895540830445, 110.22239776417518), (-107.74796284143896, 90.67031067689037), (16.870671161834494, -140.83158621334528), (57.20071315528733, -125.15052202907877), (116.13821524104759, -39.47831198398258), (120.21659959880647, 6.060789351548607), (-22.631618180993115, -110.26477657702594), (8.35693779858029, -116.83012793251741), (-142.70564756586734, -57.7789601324738), (-126.45970803424913, -96.00884126116202), (175.0039582773502, -158.08628924580216), (210.90355333554172, -88.50154481773214), (-163.19298391976665, 129.71096745862894), (-205.83850348861358, 52.35440678027237)]",0,tangential,76.29,389.22,10.01,13.3,0.0874,4,,,,,0,0,0,0,,,,,0,11,11,75,,,,,,,,,,,,,,,space,0.3868843000382185,,,,,45,,,,,,,,,,,,,,,,,,,,,,,,,,,383.51959510007873,None,,,,,,,,,7,20,Female,2021_Dec_14_1359,uniform_mix,2021.2.3,59.77704354153201,
c4_white_ref.xlsx,c4_white_t.xlsx,c4_white.xlsx,stims/white31.png,,31,414,0.4,36,"[(170.0, -90.0), (200.0, 30.0), (-100.0, -50.0), (90.0, -90.0), (110.0, 10.0), (-180.0, 10.0), (-70.0, -100.0), (40.0, -140.0), (-150.0, -120.0), (-10.0, 100.0), (-10.0, -120.0), (-90.0, 50.0), (60.0, 120.0), (-100.0, 0.0), (170.0, 130.0), (-60.0, 110.0), (-170.0, 100.0), (120.0, 60.0), (142.71181959715412, 111.69312664375889), (-9.215343804555722, 86.7598212485475), (89.47454304289786, 9.226810937065826), (-117.79928035630397, -100.0603720224207), (47.81816152484507, 100.49695258613778), (-75.26436249427422, 135.40169201681778), (-14.051782849825436, -145.22932734467858), (130.78505027509533, 70.67383654463362), (-213.71000053418288, 4.54388222690741), (-114.888570157453, 6.587543027638363), (34.016161851085535, -111.35091420876395), (49.042518420152376, -158.19229349455617), (-154.94384342391442, 86.26441203900603), (-189.45967604770772, 120.12221913687821), (-69.74596865835689, 39.32163482325008), (-107.55230612895073, 57.9901470108396), (-65.69580542358045, -81.36311065745812), (-78.22301286308075, -110.53699522463779)]","[(170.0, -90.0), (200.0, 30.0), (-100.0, -50.0), (90.0, -90.0), (110.0, 10.0), (-180.0, 10.0), (-70.0, -100.0), (40.0, -140.0), (-150.0, -120.0), (-10.0, 100.0), (-10.0, -120.0), (-90.0, 50.0), (60.0, 120.0), (-100.0, 0.0), (170.0, 130.0), (-60.0, 110.0), (-170.0, 100.0), (120.0, 60.0)]","[(142.71181959715412, 111.69312664375889), (-9.215343804555722, 86.7598212485475), (89.47454304289786, 9.226810937065826), (-117.79928035630397, -100.0603720224207), (47.81816152484507, 100.49695258613778), (-75.26436249427422, 135.40169201681778), (-14.051782849825436, -145.22932734467858), (130.78505027509533, 70.67383654463362), (-213.71000053418288, 4.54388222690741), (-114.888570157453, 6.587543027638363), (34.016161851085535, -111.35091420876395), (49.042518420152376, -158.19229349455617), (-154.94384342391442, 86.26441203900603), (-189.45967604770772, 120.12221913687821), (-69.74596865835689, 39.32163482325008), (-107.55230612895073, 57.9901470108396), (-65.69580542358045, -81.36311065745812), (-78.22301286308075, -110.53699522463779)]",0.5,radial,77.76,421.12,9.35,12.51,0.0855,3,,,,,0,0,0,0,,,,,0,12,12,30,,,,,,,,,,,,,,,space,0.29161280021071434,,,,,40,,,,,,,,,,,,,,,,,,,,,,,,,,,385.81259549967945,None,,,,,,,,,7,20,Female,2021_Dec_14_1359,uniform_mix,2021.2.3,59.77704354153201,
c4_white_ref.xlsx,c4_white_t.xlsx,c4_white.xlsx,stims/white27.png,,27,394,0.4,34,"[(-140.0, -60.0), (-80.0, 120.0), (120.0, -40.0), (-150.0, 110.0), (70.0, 90.0), (200.0, -90.0), (-80.0, -100.0), (180.0, 10.0), (-20.0, -130.0), (80.0, -120.0), (160.0, 110.0), (-170.0, 20.0), (-100.0, 20.0), (10.0, 110.0), (-140.0, -130.0), (20.0, -100.0), (120.0, 40.0), (-83.79512995212944, 23.102343040385293), (159.93502305745295, 17.889110164104437), (141.0223981072837, 90.40163172276564), (95.19506048505825, 31.619150970820705), (-188.98920607821478, 10.716615215826074), (-25.830970046933494, -146.5286168411991), (8.94006210807045, 125.70423050214612), (-89.85411811301026, -121.35552581398251), (214.74617499533306, -112.97856313373875), (55.19885720349418, 84.64750614056697), (84.23948620071484, 103.76648785737025), (-116.08882545892068, -113.39879509845468), (-171.61236991370538, -142.78886288598184), (61.16414040193848, -109.78809262009946), (97.68957873929139, -125.92642234662435), (23.087773371575906, -84.6905412611039), (17.27389722906019, -116.01119481348351)]","[(-140.0, -60.0), (-80.0, 120.0), (120.0, -40.0), (-150.0, 110.0), (70.0, 90.0), (200.0, -90.0), (-80.0, -100.0), (180.0, 10.0), (-20.0, -130.0), (80.0, -120.0), (160.0, 110.0), (-170.0, 20.0), (-100.0, 20.0), (10.0, 110.0), (-140.0, -130.0), (20.0, -100.0), (120.0, 40.0)]","[(-83.79512995212944, 23.102343040385293), (159.93502305745295, 17.889110164104437), (141.0223981072837, 90.40163172276564), (95.19506048505825, 31.619150970820705), (-188.98920607821478, 10.716615215826074), (-25.830970046933494, -146.5286168411991), (8.94006210807045, 125.70423050214612), (-89.85411811301026, -121.35552581398251), (214.74617499533306, -112.97856313373875), (55.19885720349418, 84.64750614056697), (84.23948620071484, 103.76648785737025), (-116.08882545892068, -113.39879509845468), (-171.61236991370538, -142.78886288598184), (61.16414040193848, -109.78809262009946), (97.68957873929139, -125.92642234662435), (23.087773371575906, -84.6905412611039), (17.27389722906019, -116.01119481348351)]",0.5,radial,77.96,396.19,9.64,12.84,0.0858,3,,,,,0,0,0,0,,,,,0,13,13,26,,,,,,,,,,,,,,,space,0.18241060012951493,,,,,55,,,,,,,,,,,,,,,,,,,,,,,,,,,387.5686687999405,None,,,,,,,,,7,20,Female,2021_Dec_14_1359,uniform_mix,2021.2.3,59.77704354153201,
c4_white_ref.xlsx,c4_white_t.xlsx,c4_white.xlsx,stims/white34.png,,34,1079,0.4,38,"[(90.0, -50.0), (0.0, 140.0), (40.0, 110.0), (-180.0, 40.0), (-110.0, 10.0), (10.0, -100.0), (100.0, 0.0), (110.0, 50.0), (160.0, -120.0), (200.0, 70.0), (-140.0, 140.0), (-90.0, -70.0), (-150.0, -80.0), (-110.0, 80.0), (-70.0, -120.0), (180.0, -10.0), (130.0, 110.0), (-40.0, 110.0), (90.0, -140.0), (84.20884492396688, -3.122495119261279), (172.1941688459442, 73.23397404091305), (-95.47175578621108, 65.32040902054699), (97.09710359156698, 38.702293776127306), (-76.54570351400385, -67.38165345685567), (147.92802052753632, 126.3328319805249), (-172.18846596132187, -78.35731208089999), (-165.5983526943793, 154.61737224025177), (102.76908210137093, -172.8954379869556), (-36.46377967477545, 124.51965127817505), (194.56089937724147, -141.26829535210257), (153.94735781813887, -2.5194955257653078), (204.15145660677834, -22.758749632584003), (-90.8526517849057, 7.422212222579262), (-131.42043742361838, 12.371575984324918), (14.945996988872693, -83.69865317270065), (3.7662798740727794, -111.1738485205768), (-56.81538162613686, -101.62756183490266), (-69.89833927560244, -136.57164996083338)]","[(90.0, -50.0), (0.0, 140.0), (40.0, 110.0), (-180.0, 40.0), (-110.0, 10.0), (10.0, -100.0), (100.0, 0.0), (110.0, 50.0), (160.0, -120.0), (200.0, 70.0), (-140.0, 140.0), (-90.0, -70.0), (-150.0, -80.0), (-110.0, 80.0), (-70.0, -120.0), (180.0, -10.0), (130.0, 110.0), (-40.0, 110.0), (90.0, -140.0)]","[(84.20884492396688, -3.122495119261279), (172.1941688459442, 73.23397404091305), (-95.47175578621108, 65.32040902054699), (97.09710359156698, 38.702293776127306), (-76.54570351400385, -67.38165345685567), (147.92802052753632, 126.3328319805249), (-172.18846596132187, -78.35731208089999), (-165.5983526943793, 154.61737224025177), (102.76908210137093, -172.8954379869556), (-36.46377967477545, 124.51965127817505), (194.56089937724147, -141.26829535210257), (153.94735781813887, -2.5194955257653078), (204.15145660677834, -22.758749632584003), (-90.8526517849057, 7.422212222579262), (-131.42043742361838, 12.371575984324918), (14.945996988872693, -83.69865317270065), (3.7662798740727794, -111.1738485205768), (-56.81538162613686, -101.62756183490266), (-69.89833927560244, -136.57164996083338)]",0.5,radial,80.41,444.45,9.65,13.03,0.0855,2,,,,,0,0,0,0,,,,,0,14,14,33,,,,,,,,,,,,,,,space,0.3124695001170039,,,,,50,,,,,,,,,,,,,,,,,,,,,,,,,,,389.9649998997338,None,,,,,,,,,7,20,Female,2021_Dec_14_1359,uniform_mix,2021.2.3,59.77704354153201,
c4_white_ref.xlsx,c4_white_t.xlsx,c4_white.xlsx,stims/white18.png,,18,411,0.4,42,"[(-60.0, 140.0), (-150.0, -140.0), (120.0, -50.0), (-120.0, 70.0), (-70.0, 80.0), (10.0, 130.0), (-20.0, -110.0), (90.0, 50.0), (60.0, -90.0), (-80.0, -110.0), (120.0, 10.0), (70.0, 140.0), (30.0, -130.0), (-170.0, 130.0), (150.0, -110.0), (-170.0, 20.0), (-100.0, 0.0), (150.0, 100.0), (-100.0, -60.0), (-190.0, -50.0), (190.0, -20.0), (163.60267045932346, 125.01220994900031), (99.82642450871258, 16.154753687409965), (137.91067729147346, 7.409201250271682), (-154.83314615177756, -40.5746084890251), (-217.92779620645769, -58.09792149165433), (156.30552473733576, -21.69805129704429), (220.6361174054986, -19.332060254179197), (48.82186241169006, 121.95536607415904), (89.24087941738657, 164.42079743406745), (-86.87039535112015, -0.6061812406737346), (-119.64684064093365, -5.414807822959981), (25.31687652640052, -116.88285717803873), (24.956464951263058, -149.27575271089572), (-129.87146290859675, 99.24990216684147), (-191.58275179046962, 148.21134826899993), (126.62296574613563, -84.25568333644104), (176.1309560844697, -123.97985785483944), (-144.1850526009033, 27.355757944479954), (-204.37516838429144, 20.7367412689485), (-89.90831095395572, -48.20541346229065), (-110.53440853187459, -71.29123068159461)]","[(-60.0, 140.0), (-150.0, -140.0), (120.0, -50.0), (-120.0, 70.0), (-70.0, 80.0), (10.0, 130.0), (-20.0, -110.0), (90.0, 50.0), (60.0, -90.0), (-80.0, -110.0), (120.0, 10.0), (70.0, 140.0), (30.0, -130.0), (-170.0, 130.0), (150.0, -110.0), (-170.0, 20.0), (-100.0, 0.0), (150.0, 100.0), (-100.0, -60.0), (-190.0, -50.0), (190.0, -20.0)]","[(163.60267045932346, 125.01220994900031), (99.82642450871258, 16.154753687409965), (137.91067729147346, 7.409201250271682), (-154.83314615177756, -40.5746084890251), (-217.92779620645769, -58.09792149165433), (156.30552473733576, -21.69805129704429), (220.6361174054986, -19.332060254179197), (48.82186241169006, 121.95536607415904), (89.24087941738657, 164.42079743406745), (-86.87039535112015, -0.6061812406737346), (-119.64684064093365, -5.414807822959981), (25.31687652640052, -116.88285717803873), (24.956464951263058, -149.27575271089572), (-129.87146290859675, 99.24990216684147), (-191.58275179046962, 148.21134826899993), (126.62296574613563, -84.25568333644104), (176.1309560844697, -123.97985785483944), (-144.1850526009033, 27.355757944479954), (-204.37516838429144, 20.7367412689485), (-89.90831095395572, -48.20541346229065), (-110.53440853187459, -71.29123068159461)]",0,radial,83.59,491.42,10.06,13.43,0.0855,2,,,,,0,0,0,0,,,,,0,15,15,17,,,,,,,,,,,,,,,space,0.34491349989548326,,,,,50,,,,,,,,,,,,,,,,,,,,,,,,,,,392.11087469989434,None,,,,,,,,,7,20,Female,2021_Dec_14_1359,uniform_mix,2021.2.3,59.77704354153201,
c4_white_ref.xlsx,c4_white_t.xlsx,c4_white.xlsx,stims/white99.png,,99,2935,0.4,34,"[(120.0, -90.0), (-120.0, -70.0), (-140.0, -140.0), (-40.0, -100.0), (-120.0, 50.0), (-110.0, -20.0), (-180.0, 100.0), (80.0, 100.0), (0.0, 120.0), (-90.0, 110.0), (110.0, -10.0), (20.0, -140.0), (130.0, 40.0), (60.0, -90.0), (200.0, -40.0), (170.0, 110.0), (-180.0, -20.0), (-104.65898427961659, 65.01228200380862), (-183.86312454022487, 125.08263436035764), (204.3211847202651, -73.97395647503183), (96.28928341324588, 95.04470727117615), (-17.41413459783314, 123.2376754393565), (140.78986859489078, 134.76951654171614), (-113.72462835099998, -41.28693472824065), (124.29287629643247, 59.330404307835906), (114.39222744248022, 13.027251640007336), (-170.93073964650233, 8.57495243706444), (-185.05826435093644, -50.29926437418436), (42.175964166950195, -99.30459159491566), (70.65188797490502, -78.90227939269136), (1.0091882186502232, -131.72136430148586), (36.05733382921497, -136.42687094759054), (-78.73144778146137, 120.82441902561925), (-113.00418565516854, 102.42206956644797)]","[(120.0, -90.0), (-120.0, -70.0), (-140.0, -140.0), (-40.0, -100.0), (-120.0, 50.0), (-110.0, -20.0), (-180.0, 100.0), (80.0, 100.0), (0.0, 120.0), (-90.0, 110.0), (110.0, -10.0), (20.0, -140.0), (130.0, 40.0), (60.0, -90.0), (200.0, -40.0), (170.0, 110.0), (-180.0, -20.0)]","[(-104.65898427961659, 65.01228200380862), (-183.86312454022487, 125.08263436035764), (204.3211847202651, -73.97395647503183), (96.28928341324588, 95.04470727117615), (-17.41413459783314, 123.2376754393565), (140.78986859489078, 134.76951654171614), (-113.72462835099998, -41.28693472824065), (124.29287629643247, 59.330404307835906), (114.39222744248022, 13.027251640007336), (-170.93073964650233, 8.57495243706444), (-185.05826435093644, -50.29926437418436), (42.175964166950195, -99.30459159491566), (70.65188797490502, -78.90227939269136), (1.0091882186502232, -131.72136430148586), (36.05733382921497, -136.42687094759054), (-78.73144778146137, 120.82441902561925), (-113.00418565516854, 102.42206956644797)]",0.5,tangential,77.36,399.23,9.73,13.02,0.0852,3,,,,,0,0,0,0,,,,,0,16,16,98,,,,,,,,,,,,,,,space,0.24989790003746748,,,,,45,,,,,,,,,,,,,,,,,,,,,,,,,,,393.9663435998373,None,,,,,,,,,7,20,Female,2021_Dec_14_1359,uniform_mix,2021.2.3,59.77704354153201,
c4_white_ref.xlsx,c4_white_t.xlsx,c4_white.xlsx,stims/white91.png,,91,3388,0.4,42,"[(0.0, 100.0), (200.0, -140.0), (-100.0, 0.0), (-80.0, -60.0), (130.0, -70.0), (-70.0, 110.0), (180.0, 60.0), (-110.0, 40.0), (-150.0, -60.0), (90.0, 100.0), (-170.0, 110.0), (-190.0, 10.0), (170.0, 140.0), (110.0, 0.0), (80.0, -90.0), (10.0, -110.0), (-160.0, -140.0), (40.0, 140.0), (90.0, 50.0), (200.0, -40.0), (-80.0, -120.0), (137.83254818086237, 163.76220263184862), (100.25423579544645, -10.92976244761013), (114.86876236928583, 23.377058152964793), (-4.0382971068210765, -115.04500965939268), (29.770167525799437, -101.77451110758423), (199.67248114920343, -82.95181317014371), (217.54676740492152, -17.294825067814003), (-140.009579469698, 133.5048739007773), (-172.22307784024008, 83.87749030658762), (93.20398905215316, 35.2400484629341), (78.21859251558688, 71.45914106142673), (-89.14046734624148, -105.56637238825726), (-61.904404829381264, -139.36806437310997), (71.10601674276631, 135.33314340202207), (16.182474609511786, 150.7068564882121), (-189.86430965878645, -126.84170130190878), (-155.75874682978986, -165.57365353166125), (-175.598467241447, 29.89035748147751), (-186.67564257647436, -29.0796603055137), (65.63562472337247, -109.74842937150137), (89.38710694667287, -77.3314522762345)]","[(0.0, 100.0), (200.0, -140.0), (-100.0, 0.0), (-80.0, -60.0), (130.0, -70.0), (-70.0, 110.0), (180.0, 60.0), (-110.0, 40.0), (-150.0, -60.0), (90.0, 100.0), (-170.0, 110.0), (-190.0, 10.0), (170.0, 140.0), (110.0, 0.0), (80.0, -90.0), (10.0, -110.0), (-160.0, -140.0), (40.0, 140.0), (90.0, 50.0), (200.0, -40.0), (-80.0, -120.0)]","[(137.83254818086237, 163.76220263184862), (100.25423579544645, -10.92976244761013), (114.86876236928583, 23.377058152964793), (-4.0382971068210765, -115.04500965939268), (29.770167525799437, -101.77451110758423), (199.67248114920343, -82.95181317014371), (217.54676740492152, -17.294825067814003), (-140.009579469698, 133.5048739007773), (-172.22307784024008, 83.87749030658762), (93.20398905215316, 35.2400484629341), (78.21859251558688, 71.45914106142673), (-89.14046734624148, -105.56637238825726), (-61.904404829381264, -139.36806437310997), (71.10601674276631, 135.33314340202207), (16.182474609511786, 150.7068564882121), (-189.86430965878645, -126.84170130190878), (-155.75874682978986, -165.57365353166125), (-175.598467241447, 29.89035748147751), (-186.67564257647436, -29.0796603055137), (65.63562472337247, -109.74842937150137), (89.38710694667287, -77.3314522762345)]",0,tangential,84.62,491.3,10.18,13.72,0.0855,3,,,,,0,0,0,0,,,,,0,17,17,90,,,,,,,,,,,,,,,space,0.3295784001238644,,,,,40,,,,,,,,,,,,,,,,,,,,,,,,,,,398.6298630996607,None,,,,,,,,,7,20,Female,2021_Dec_14_1359,uniform_mix,2021.2.3,59.77704354153201,
c4_white_ref.xlsx,c4_white_t.xlsx,c4_white.xlsx,stims/white101.png,,101,541,0.4,36,"[(-100.0, -20.0), (-80.0, -70.0), (100.0, -30.0), (200.0, -110.0), (190.0, 110.0), (-160.0, 90.0), (-90.0, 80.0), (-140.0, 20.0), (10.0, 100.0), (-180.0, -70.0), (-80.0, -130.0), (140.0, 10.0), (100.0, 70.0), (100.0, -80.0), (40.0, -130.0), (80.0, 120.0), (-60.0, 130.0), (-20.0, -110.0), (-143.0296824725201, 112.9993700745382), (-185.1492939941591, -37.87991491876738), (-47.75215457659773, 145.60048046456308), (136.91134336511703, -16.76758729477652), (98.16737298754164, 106.03328626527113), (5.730982455077637, -117.45992386381428), (-2.553551588111816, 108.23160631626601), (-70.94892634453026, -148.63117309356252), (115.68865921271062, -71.47165011793132), (-148.86469375805473, -3.3737221909403274), (30.301167183732417, -145.5165230849738), (58.30060836717537, -116.55334251183092), (-74.03686215127726, 95.12754399574604), (-92.30076976864558, 63.02052269663167), (207.1440184318737, 94.37110957387813), (161.52977008848953, 140.686668644265), (114.23305843034892, 59.43485461449184), (84.38566139475023, 87.37946684989971)]","[(-100.0, -20.0), (-80.0, -70.0), (100.0, -30.0), (200.0, -110.0), (190.0, 110.0), (-160.0, 90.0), (-90.0, 80.0), (-140.0, 20.0), (10.0, 100.0), (-180.0, -70.0), (-80.0, -130.0), (140.0, 10.0), (100.0, 70.0), (100.0, -80.0), (40.0, -130.0), (80.0, 120.0), (-60.0, 130.0), (-20.0, -110.0)]","[(-143.0296824725201, 112.9993700745382), (-185.1492939941591, -37.87991491876738), (-47.75215457659773, 145.60048046456308), (136.91134336511703, -16.76758729477652), (98.16737298754164, 106.03328626527113), (5.730982455077637, -117.45992386381428), (-2.553551588111816, 108.23160631626601), (-70.94892634453026, -148.63117309356252), (115.68865921271062, -71.47165011793132), (-148.86469375805473, -3.3737221909403274), (30.301167183732417, -145.5165230849738), (58.30060836717537, -116.55334251183092), (-74.03686215127726, 95.12754399574604), (-92.30076976864558, 63.02052269663167), (207.1440184318737, 94.37110957387813), (161.52977008848953, 140.686668644265), (114.23305843034892, 59.43485461449184), (84.38566139475023, 87.37946684989971)]",0.5,tangential,77.23,423.34,9.57,12.82,0.085,1,,,,,0,0,0,0,,,,,0,18,18,100,,,,,,,,,,,,,,,space,0.29391909996047616,,,,,40,,,,,,,,,,,,,,,,,,,,,,,,,,,402.56511259963736,None,,,,,,,,,7,20,Female,2021_Dec_14_1359,uniform_mix,2021.2.3,59.77704354153201,
c4_white_ref.xlsx,c4_white_t.xlsx,c4_white.xlsx,stims/white118.png,,118,3572,0.4,44,"[(150.0, 20.0), (100.0, 0.0), (-10.0, -140.0), (-200.0, -50.0), (-90.0, -140.0), (60.0, -130.0), (-20.0, 110.0), (190.0, -140.0), (150.0, 130.0), (-70.0, 140.0), (40.0, 110.0), (110.0, -70.0), (90.0, 50.0), (-60.0, 80.0), (-200.0, -140.0), (60.0, -80.0), (-190.0, 130.0), (-100.0, 60.0), (-90.0, -80.0), (200.0, -50.0), (-120.0, -10.0), (-160.0, 40.0), (42.463772609393686, -133.15622018214935), (185.78574496972126, -77.19332925521778), (6.166899516291906, 114.32016448458896), (-152.32346967639268, 72.82865450676488), (-40.701741255557096, 153.8953373633991), (-102.74990690977356, -70.30688299948767), (-73.88675631703978, 74.53962026301778), (120.20050007240363, -42.72904391799581), (-218.62904922244576, 123.04311510135668), (16.296048894309607, 115.43883083577572), (199.48360072338875, -106.3305242491453), (-115.8240953680677, 38.67763597504688), (93.05286956632312, 34.5812857200072), (81.0625791194668, 70.43767387556349), (-203.04723849355332, -110.10134282372064), (-184.00975696304175, -175.42117049254554), (41.19213334569392, -94.31869472154838), (79.94241039685309, -71.73910734102351), (161.24523559078295, 100.88482099837528), (125.98239232535359, 165.4707425791227), (-114.12490491142965, 8.818606417492148), (-112.50575197007836, -32.07126110386352)]","[(150.0, 20.0), (100.0, 0.0), (-10.0, -140.0), (-200.0, -50.0), (-90.0, -140.0), (60.0, -130.0), (-20.0, 110.0), (190.0, -140.0), (150.0, 130.0), (-70.0, 140.0), (40.0, 110.0), (110.0, -70.0), (90.0, 50.0), (-60.0, 80.0), (-200.0, -140.0), (60.0, -80.0), (-190.0, 130.0), (-100.0, 60.0), (-90.0, -80.0), (200.0, -50.0), (-120.0, -10.0), (-160.0, 40.0)]","[(42.463772609393686, -133.15622018214935), (185.78574496972126, -77.19332925521778), (6.166899516291906, 114.32016448458896), (-152.32346967639268, 72.82865450676488), (-40.701741255557096, 153.8953373633991), (-102.74990690977356, -70.30688299948767), (-73.88675631703978, 74.53962026301778), (120.20050007240363, -42.72904391799581), (-218.62904922244576, 123.04311510135668), (16.296048894309607, 115.43883083577572), (199.48360072338875, -106.3305242491453), (-115.8240953680677, 38.67763597504688), (93.05286956632312, 34.5812857200072), (81.0625791194668, 70.43767387556349), (-203.04723849355332, -110.10134282372064), (-184.00975696304175, -175.42117049254554), (41.19213334569392, -94.31869472154838), (79.94241039685309, -71.73910734102351), (161.24523559078295, 100.88482099837528), (125.98239232535359, 165.4707425791227), (-114.12490491142965, 8.818606417492148), (-112.50575197007836, -32.07126110386352)]",0.5,tangential,88.16,515.08,10.04,13.63,0.0854,2,,,,,0,0,0,0,,,,,0,19,19,117,,,,,,,,,,,,,,,space,0.1445965003222227,,,,,50,,,,,,,,,,,,,,,,,,,,,,,,,,,404.6075267996639,None,,,,,,,,,7,20,Female,2021_Dec_14_1359,uniform_mix,2021.2.3,59.77704354153201,
c4_white_ref.xlsx,c4_white_t.xlsx,c4_white.xlsx,stims/white139.png,,139,1250,0.4,42,"[(-150.0, 60.0), (-110.0, -70.0), (-100.0, -130.0), (180.0, 80.0), (-50.0, 120.0), (180.0, -140.0), (110.0, 0.0), (80.0, 70.0), (60.0, -80.0), (-80.0, 80.0), (-100.0, 10.0), (-190.0, 140.0), (-190.0, -140.0), (170.0, -30.0), (120.0, -70.0), (70.0, 140.0), (0.0, 110.0), (60.0, -130.0), (-200.0, -30.0), (-10.0, -130.0), (-50.0, -100.0), (-139.30697067229335, 86.828503866508), (-108.10355062050203, -52.460722937481904), (-119.38824184985629, -107.27825008321608), (204.7322925439263, 51.88084080555586), (-26.73207238275384, 133.71445625646697), (156.5314504734247, -152.6026295399788), (104.88901392110704, -21.96940152566512), (95.52439706899473, 51.5321622817632), (49.24467031194591, -93.12930130710544), (-67.46194673692834, 98.18974351461705), (-97.82119597367604, -2.4590228871865207), (-215.03100458979998, 104.94544409806122), (-160.15569914414067, -157.2812354298727), (168.5684078805079, 5.302083330346818), (120.37789435215666, -50.71418289724012), (53.11448193212655, 158.85144825811665), (-20.781838833983784, 117.0597894242547), (82.36237924194353, -113.46059452549454), (-197.57762096760084, -59.24701044233973), (11.88280023343394, -139.81754020316646), (-33.20439953095618, -102.89511122701927)]","[(-150.0, 60.0), (-110.0, -70.0), (-100.0, -130.0), (180.0, 80.0), (-50.0, 120.0), (180.0, -140.0), (110.0, 0.0), (80.0, 70.0), (60.0, -80.0), (-80.0, 80.0), (-100.0, 10.0), (-190.0, 140.0), (-190.0, -140.0), (170.0, -30.0), (120.0, -70.0), (70.0, 140.0), (0.0, 110.0), (60.0, -130.0), (-200.0, -30.0), (-10.0, -130.0), (-50.0, -100.0)]","[(-139.30697067229335, 86.828503866508), (-108.10355062050203, -52.460722937481904), (-119.38824184985629, -107.27825008321608), (204.7322925439263, 51.88084080555586), (-26.73207238275384, 133.71445625646697), (156.5314504734247, -152.6026295399788), (104.88901392110704, -21.96940152566512), (95.52439706899473, 51.5321622817632), (49.24467031194591, -93.12930130710544), (-67.46194673692834, 98.18974351461705), (-97.82119597367604, -2.4590228871865207), (-215.03100458979998, 104.94544409806122), (-160.15569914414067, -157.2812354298727), (168.5684078805079, 5.302083330346818), (120.37789435215666, -50.71418289724012), (53.11448193212655, 158.85144825811665), (-20.781838833983784, 117.0597894242547), (82.36237924194353, -113.46059452549454), (-197.57762096760084, -59.24701044233973), (11.88280023343394, -139.81754020316646), (-33.20439953095618, -102.89511122701927)]",1,tangential,84.51,491.02,9.93,13.38,0.0855,3,,,,,0,0,0,0,,,,,0,20,20,138,,,,,,,,,,,,,,,space,0.1924948003143072,,,,,45,,,,,,,,,,,,,,,,,,,,,,,,,,,408.1462354999967,None,,,,,,,,,7,20,Female,2021_Dec_14_1359,uniform_mix,2021.2.3,59.77704354153201,
c4_white_ref.xlsx,c4_white_t.xlsx,c4_white.xlsx,stims/white143.png,,143,3031,0.4,44,"[(-200.0, 40.0), (-180.0, -130.0), (70.0, 80.0), (180.0, -140.0), (120.0, -40.0), (-80.0, 60.0), (-200.0, 140.0), (100.0, 140.0), (150.0, 20.0), (-80.0, -60.0), (190.0, -40.0), (10.0, 120.0), (-130.0, -30.0), (-120.0, 30.0), (100.0, -100.0), (40.0, -130.0), (180.0, 110.0), (-110.0, 110.0), (-40.0, 140.0), (-30.0, -110.0), (-100.0, -110.0), (110.0, 60.0), (-189.26148024592257, 60.897100361629555), (-210.66518808393718, -99.40665782207697), (84.05410974538013, 78.74256713947703), (156.92285220842246, -175.23564104692906), (109.74513810466841, -61.69189564105254), (-65.7072864864221, 69.39278684278709), (-172.63198775368534, 191.27502028991785), (108.70802311807535, 118.0925016213141), (164.26379240594105, -3.9511946062414722), (-85.5296761208726, -46.58777972880395), (174.6426318203165, -68.12594213375857), (-11.928564857214027, 120.78590862176816), (-137.5135040869267, -47.74235017959974), (-130.56404070488557, 6.017405463249986), (106.61892055424897, -78.0171681933107), (60.10450681838728, -131.5052816317571), (161.79481486582029, 125.80236279842703), (-123.49246516281725, 89.74206334915365), (-68.98372839152414, 127.6413475695191), (-5.72470176709183, -119.99696726502462), (-83.34599013774017, -114.29114804187182), (105.371425799482, 72.42560195651906)]","[(-200.0, 40.0), (-180.0, -130.0), (70.0, 80.0), (180.0, -140.0), (120.0, -40.0), (-80.0, 60.0), (-200.0, 140.0), (100.0, 140.0), (150.0, 20.0), (-80.0, -60.0), (190.0, -40.0), (10.0, 120.0), (-130.0, -30.0), (-120.0, 30.0), (100.0, -100.0), (40.0, -130.0), (180.0, 110.0), (-110.0, 110.0), (-40.0, 140.0), (-30.0, -110.0), (-100.0, -110.0), (110.0, 60.0)]","[(-189.26148024592257, 60.897100361629555), (-210.66518808393718, -99.40665782207697), (84.05410974538013, 78.74256713947703), (156.92285220842246, -175.23564104692906), (109.74513810466841, -61.69189564105254), (-65.7072864864221, 69.39278684278709), (-172.63198775368534, 191.27502028991785), (108.70802311807535, 118.0925016213141), (164.26379240594105, -3.9511946062414722), (-85.5296761208726, -46.58777972880395), (174.6426318203165, -68.12594213375857), (-11.928564857214027, 120.78590862176816), (-137.5135040869267, -47.74235017959974), (-130.56404070488557, 6.017405463249986), (106.61892055424897, -78.0171681933107), (60.10450681838728, -131.5052816317571), (161.79481486582029, 125.80236279842703), (-123.49246516281725, 89.74206334915365), (-68.98372839152414, 127.6413475695191), (-5.72470176709183, -119.99696726502462), (-83.34599013774017, -114.29114804187182), (105.371425799482, 72.42560195651906)]",1,tangential,87.62,514.36,10.18,13.68,0.0855,3,,,,,0,0,0,0,,,,,0,21,21,142,,,,,,,,,,,,,,,space,0.15687970025464892,,,,,50,,,,,,,,,,,,,,,,,,,,,,,,,,,410.90044299978763,None,,,,,,,,,7,20,Female,2021_Dec_14_1359,uniform_mix,2021.2.3,59.77704354153201,
c4_white_ref.xlsx,c4_white_t.xlsx,c4_white.xlsx,stims/white75.png,,75,1561,0.4,34,"[(100.0, -90.0), (-120.0, 10.0), (80.0, 60.0), (-20.0, 100.0), (70.0, 110.0), (-160.0, 110.0), (-80.0, -120.0), (200.0, -50.0), (-80.0, 100.0), (-120.0, -60.0), (-90.0, 50.0), (-190.0, -60.0), (10.0, -110.0), (140.0, 80.0), (110.0, -10.0), (200.0, -140.0), (70.0, -140.0), (23.92540493363535, -117.01072760647776), (160.08877644538043, -180.66305853928853), (217.45284762916415, -115.37437050890554), (143.7227951230125, 62.53859418704337), (123.50841847150423, 113.52211740823812), (107.27009183125435, -30.816266346804582), (107.90083846298809, 8.033688652103493), (-89.40719056633026, 62.71924495912148), (-100.70574514209468, 37.242041493116716), (-56.23356005035119, 120.72632101882458), (-84.6769958460387, 85.11953291187504), (-129.63022690653466, -45.86884207839806), (-109.98479341777127, -77.09244241177797), (47.1735956858017, -153.2620132568402), (102.00076132740668, -134.33848002960357), (-202.68274958050938, -20.39121422721962), (-195.0535814047605, -84.06240052897593)]","[(100.0, -90.0), (-120.0, 10.0), (80.0, 60.0), (-20.0, 100.0), (70.0, 110.0), (-160.0, 110.0), (-80.0, -120.0), (200.0, -50.0), (-80.0, 100.0), (-120.0, -60.0), (-90.0, 50.0), (-190.0, -60.0), (10.0, -110.0), (140.0, 80.0), (110.0, -10.0), (200.0, -140.0), (70.0, -140.0)]","[(23.92540493363535, -117.01072760647776), (160.08877644538043, -180.66305853928853), (217.45284762916415, -115.37437050890554), (143.7227951230125, 62.53859418704337), (123.50841847150423, 113.52211740823812), (107.27009183125435, -30.816266346804582), (107.90083846298809, 8.033688652103493), (-89.40719056633026, 62.71924495912148), (-100.70574514209468, 37.242041493116716), (-56.23356005035119, 120.72632101882458), (-84.6769958460387, 85.11953291187504), (-129.63022690653466, -45.86884207839806), (-109.98479341777127, -77.09244241177797), (47.1735956858017, -153.2620132568402), (102.00076132740668, -134.33848002960357), (-202.68274958050938, -20.39121422721962), (-195.0535814047605, -84.06240052897593)]",0,tangential,77.82,398.24,9.85,13.2,0.0854,3,,,,,0,0,0,0,,,,,0,22,22,74,,,,,,,,,,,,,,,space,0.46578319976106286,,,,,44,,,,,,,,,,,,,,,,,,,,,,,,,,,413.20309560000896,None,,,,,,,,,7,20,Female,2021_Dec_14_1359,uniform_mix,2021.2.3,59.77704354153201,
c4_white_ref.xlsx,c4_white_t.xlsx,c4_white.xlsx,stims/white28.png,,28,4640,0.4,34,"[(-140.0, 80.0), (90.0, -110.0), (-110.0, -70.0), (160.0, 100.0), (-70.0, 90.0), (10.0, -130.0), (-180.0, -20.0), (80.0, -60.0), (-60.0, -80.0), (-190.0, -120.0), (180.0, -80.0), (50.0, 140.0), (-20.0, 130.0), (-120.0, 10.0), (-70.0, -130.0), (120.0, 10.0), (60.0, 80.0), (146.73177306299374, -57.58800450843291), (38.01710222932026, 122.32331387936672), (-54.136432832191794, 78.44545546187635), (47.46317560182986, 71.31554050245813), (-135.62473212368008, 1.4566292986697), (-70.67205501842027, -155.23119426638712), (138.43385132456564, 3.2790709127611386), (3.2373025778624935, -149.43508180817915), (-65.37332348045274, -94.33906961004877), (-163.14238008031265, -115.91247802516205), (-220.14767988105226, -119.90608381589138), (69.35475282727334, -44.693652988814385), (92.82421099067267, -61.007632711640696), (-8.804150326865546, 103.91935244187108), (-28.171303285633265, 159.07429812390455), (-151.71566829516934, -27.598385513343203), (-218.57340582971307, -27.211860762801322)]","[(-140.0, 80.0), (90.0, -110.0), (-110.0, -70.0), (160.0, 100.0), (-70.0, 90.0), (10.0, -130.0), (-180.0, -20.0), (80.0, -60.0), (-60.0, -80.0), (-190.0, -120.0), (180.0, -80.0), (50.0, 140.0), (-20.0, 130.0), (-120.0, 10.0), (-70.0, -130.0), (120.0, 10.0), (60.0, 80.0)]","[(146.73177306299374, -57.58800450843291), (38.01710222932026, 122.32331387936672), (-54.136432832191794, 78.44545546187635), (47.46317560182986, 71.31554050245813), (-135.62473212368008, 1.4566292986697), (-70.67205501842027, -155.23119426638712), (138.43385132456564, 3.2790709127611386), (3.2373025778624935, -149.43508180817915), (-65.37332348045274, -94.33906961004877), (-163.14238008031265, -115.91247802516205), (-220.14767988105226, -119.90608381589138), (69.35475282727334, -44.693652988814385), (92.82421099067267, -61.007632711640696), (-8.804150326865546, 103.91935244187108), (-28.171303285633265, 159.07429812390455), (-151.71566829516934, -27.598385513343203), (-218.57340582971307, -27.211860762801322)]",0.5,radial,75.84,396.25,9.43,12.58,0.0858,4,,,,,0,0,0,0,,,,,0,23,23,27,,,,,,,,,,,,,,,space,0.3313775002025068,,,,,35,,,,,,,,,,,,,,,,,,,,,,,,,,,416.25867359992117,None,,,,,,,,,7,20,Female,2021_Dec_14_1359,uniform_mix,2021.2.3,59.77704354153201,
c4_white_ref.xlsx,c4_white_t.xlsx,c4_white.xlsx,stims/white80.png,,80,3915,0.4,36,"[(40.0, 120.0), (-30.0, 120.0), (30.0, -140.0), (180.0, -90.0), (-140.0, 0.0), (-90.0, 140.0), (160.0, 40.0), (200.0, 140.0), (90.0, -90.0), (100.0, 10.0), (110.0, 100.0), (-190.0, 70.0), (-10.0, -100.0), (140.0, -30.0), (-160.0, -100.0), (-100.0, 70.0), (-50.0, -140.0), (-80.0, -70.0), (-82.87236101463114, -131.25733125968173), (-27.62693860254936, -149.95810518866426), (-90.62206392975455, -49.518356349154615), (-77.6956209253124, -86.31424465729242), (-82.25843016302049, 78.33013738266496), (-100.65873156650542, 53.724669052052434), (129.86120793396904, -54.04621859821303), (150.60785598524166, -9.520600120084865), (106.10958210659263, -2.1576600490044058), (101.77482484057585, 32.448277927349096), (122.95023553325719, 88.15000937550764), (92.70843829338423, 118.22835202708792), (-26.77458775193527, -94.70355137790281), (10.112992325780937, -106.68343018929278), (-172.6892487568681, 111.1253125866663), (-191.03799536109562, 45.653958848345496), (-185.39705064355385, -67.62555730676912), (-150.98333140987216, -126.57906235403237)]","[(40.0, 120.0), (-30.0, 120.0), (30.0, -140.0), (180.0, -90.0), (-140.0, 0.0), (-90.0, 140.0), (160.0, 40.0), (200.0, 140.0), (90.0, -90.0), (100.0, 10.0), (110.0, 100.0), (-190.0, 70.0), (-10.0, -100.0), (140.0, -30.0), (-160.0, -100.0), (-100.0, 70.0), (-50.0, -140.0), (-80.0, -70.0)]","[(-82.87236101463114, -131.25733125968173), (-27.62693860254936, -149.95810518866426), (-90.62206392975455, -49.518356349154615), (-77.6956209253124, -86.31424465729242), (-82.25843016302049, 78.33013738266496), (-100.65873156650542, 53.724669052052434), (129.86120793396904, -54.04621859821303), (150.60785598524166, -9.520600120084865), (106.10958210659263, -2.1576600490044058), (101.77482484057585, 32.448277927349096), (122.95023553325719, 88.15000937550764), (92.70843829338423, 118.22835202708792), (-26.77458775193527, -94.70355137790281), (10.112992325780937, -106.68343018929278), (-172.6892487568681, 111.1253125866663), (-191.03799536109562, 45.653958848345496), (-185.39705064355385, -67.62555730676912), (-150.98333140987216, -126.57906235403237)]",0,tangential,78.62,420.49,9.56,12.79,0.0856,4,,,,,0,0,0,0,,,,,0,24,24,79,,,,,,,,,,,,,,,space,0.06556009966880083,,,,,45,,,,,,,,,,,,,,,,,,,,,,,,,,,420.3594408999197,None,,,,,,,,,7,20,Female,2021_Dec_14_1359,uniform_mix,2021.2.3,59.77704354153201,
c4_white_ref.xlsx,c4_white_t.xlsx,c4_white.xlsx,stims/white129.png,,129,279,0.4,38,"[(-200.0, 10.0), (-130.0, -10.0), (180.0, -90.0), (-50.0, 90.0), (110.0, 10.0), (140.0, 70.0), (60.0, 140.0), (80.0, 60.0), (-100.0, 140.0), (60.0, -140.0), (90.0, -70.0), (-100.0, 70.0), (0.0, 120.0), (160.0, -20.0), (-10.0, -130.0), (-130.0, -90.0), (-200.0, 130.0), (190.0, 130.0), (-60.0, -90.0), (-209.39654490726335, 50.5763523175315), (-131.57221083071732, 13.685783016582235), (185.75116416546044, -117.58372918946503), (-44.50452551725695, 103.36846408641779), (115.8076184076955, -7.150738561741477), (151.27899357971367, 42.81813988453456), (89.46562670966993, 122.96341719644735), (91.65422412723713, 54.9620059024289), (-73.76731391552593, 150.97260490468668), (82.27414454512189, -121.77281943370707), (102.60863126962005, -52.85016050610895), (-109.95742215280725, 48.11671989486305), (-16.933029512453132, 111.82495999793339), (153.93123322819162, 9.564450846679165), (8.654959932905342, -140.457540060976), (-115.94394347778697, -119.76924978519217), (-225.45827576013897, 81.83439893829785), (164.6265927313715, 156.62750746094426), (-42.75493154083523, -106.00523557859987)]","[(-200.0, 10.0), (-130.0, -10.0), (180.0, -90.0), (-50.0, 90.0), (110.0, 10.0), (140.0, 70.0), (60.0, 140.0), (80.0, 60.0), (-100.0, 140.0), (60.0, -140.0), (90.0, -70.0), (-100.0, 70.0), (0.0, 120.0), (160.0, -20.0), (-10.0, -130.0), (-130.0, -90.0), (-200.0, 130.0), (190.0, 130.0), (-60.0, -90.0)]","[(-209.39654490726335, 50.5763523175315), (-131.57221083071732, 13.685783016582235), (185.75116416546044, -117.58372918946503), (-44.50452551725695, 103.36846408641779), (115.8076184076955, -7.150738561741477), (151.27899357971367, 42.81813988453456), (89.46562670966993, 122.96341719644735), (91.65422412723713, 54.9620059024289), (-73.76731391552593, 150.97260490468668), (82.27414454512189, -121.77281943370707), (102.60863126962005, -52.85016050610895), (-109.95742215280725, 48.11671989486305), (-16.933029512453132, 111.82495999793339), (153.93123322819162, 9.564450846679165), (8.654959932905342, -140.457540060976), (-115.94394347778697, -119.76924978519217), (-225.45827576013897, 81.83439893829785), (164.6265927313715, 156.62750746094426), (-42.75493154083523, -106.00523557859987)]",1,tangential,81.25,444.4,9.95,13.32,0.0855,1,,,,,0,0,0,0,,,,,0,25,25,128,,,,,,,,,,,,,,,space,0.4053207002580166,,,,,50,,,,,,,,,,,,,,,,,,,,,,,,,,,423.1400616997853,None,,,,,,,,,7,20,Female,2021_Dec_14_1359,uniform_mix,2021.2.3,59.77704354153201,
c4_white_ref.xlsx,c4_white_t.xlsx,c4_white.xlsx,stims/white3.png,,3,4009,0.4,34,"[(-110.0, -50.0), (-70.0, 110.0), (160.0, -130.0), (110.0, 10.0), (90.0, -90.0), (200.0, 90.0), (160.0, -10.0), (-100.0, 30.0), (-80.0, -110.0), (-140.0, 100.0), (110.0, 100.0), (-160.0, 10.0), (-20.0, -140.0), (-150.0, -100.0), (0.0, 100.0), (50.0, 110.0), (30.0, -120.0), (-155.8269364025159, 114.70858160467944), (-126.29052760283578, -77.63017645092927), (-169.17568043558094, -117.90757990348911), (29.42771326519383, -97.11678921325492), (39.100195839611075, -147.72951623092555), (-137.15991511270485, 12.590298450342313), (-184.64978206086488, 15.033013667415359), (0.028934992719785058, 81.72822162710065), (-5.9122763355833285, 116.57079313146085), (36.83061858520595, 86.18091359857863), (51.16831108930749, 132.08244595347546), (-12.889179291757639, -117.95821801098519), (-25.164924479262147, -158.97915100644508), (99.10904133816115, 80.66523085019786), (126.75443866533608, 125.79540397113172), (-71.53012592726526, -91.5829870366697), (-89.9715873384912, -123.65250498465733)]","[(-110.0, -50.0), (-70.0, 110.0), (160.0, -130.0), (110.0, 10.0), (90.0, -90.0), (200.0, 90.0), (160.0, -10.0), (-100.0, 30.0), (-80.0, -110.0), (-140.0, 100.0), (110.0, 100.0), (-160.0, 10.0), (-20.0, -140.0), (-150.0, -100.0), (0.0, 100.0), (50.0, 110.0), (30.0, -120.0)]","[(-155.8269364025159, 114.70858160467944), (-126.29052760283578, -77.63017645092927), (-169.17568043558094, -117.90757990348911), (29.42771326519383, -97.11678921325492), (39.100195839611075, -147.72951623092555), (-137.15991511270485, 12.590298450342313), (-184.64978206086488, 15.033013667415359), (0.028934992719785058, 81.72822162710065), (-5.9122763355833285, 116.57079313146085), (36.83061858520595, 86.18091359857863), (51.16831108930749, 132.08244595347546), (-12.889179291757639, -117.95821801098519), (-25.164924479262147, -158.97915100644508), (99.10904133816115, 80.66523085019786), (126.75443866533608, 125.79540397113172), (-71.53012592726526, -91.5829870366697), (-89.9715873384912, -123.65250498465733)]",0,radial,76.14,399.82,9.39,12.5,0.085,3,,,,,0,0,0,0,,,,,0,26,26,2,,,,,,,,,,,,,,,space,0.15562970004975796,,,,,56,,,,,,,,,,,,,,,,,,,,,,,,,,,424.8349025999196,None,,,,,,,,,7,20,Female,2021_Dec_14_1359,uniform_mix,2021.2.3,59.77704354153201,
c4_white_ref.xlsx,c4_white_t.xlsx,c4_white.xlsx,stims/white131.png,,131,1554,0.4,38,"[(50.0, -90.0), (190.0, 50.0), (-30.0, -140.0), (-120.0, 30.0), (-190.0, 0.0), (0.0, -100.0), (-80.0, 70.0), (-200.0, 120.0), (-110.0, -40.0), (-90.0, 130.0), (100.0, 50.0), (180.0, -100.0), (-190.0, -100.0), (110.0, -130.0), (-80.0, -100.0), (120.0, 130.0), (-10.0, 130.0), (120.0, -40.0), (50.0, 100.0), (37.267203079050276, -104.63061292215883), (208.19901012135153, 34.10262072786841), (-48.92899992097459, -130.37412686109857), (-117.49156174991636, 57.67275779057418), (-186.5038537090939, 19.288608623177822), (-10.977174516402542, -100.0022938608077), (-66.58776271039703, 88.21092611484468), (-171.06701893154968, 153.40886113067756), (-121.75526845415854, -29.27084920271008), (-106.18408015544237, 109.65274178731492), (84.6193958027192, 70.41706373496235), (199.1280385329496, -82.15454738911203), (-171.96344519747538, -115.47102106068465), (143.08722784271544, -108.6176301158591), (-56.59402023237402, -113.3620462320107), (101.72755556473183, 148.24356605205023), (-35.465574116092725, 134.20515775582308), (114.78325385307089, -21.830117681512803), (37.312472763857514, 110.19853199450407)]","[(50.0, -90.0), (190.0, 50.0), (-30.0, -140.0), (-120.0, 30.0), (-190.0, 0.0), (0.0, -100.0), (-80.0, 70.0), (-200.0, 120.0), (-110.0, -40.0), (-90.0, 130.0), (100.0, 50.0), (180.0, -100.0), (-190.0, -100.0), (110.0, -130.0), (-80.0, -100.0), (120.0, 130.0), (-10.0, 130.0), (120.0, -40.0), (50.0, 100.0)]","[(37.267203079050276, -104.63061292215883), (208.19901012135153, 34.10262072786841), (-48.92899992097459, -130.37412686109857), (-117.49156174991636, 57.67275779057418), (-186.5038537090939, 19.288608623177822), (-10.977174516402542, -100.0022938608077), (-66.58776271039703, 88.21092611484468), (-171.06701893154968, 153.40886113067756), (-121.75526845415854, -29.27084920271008), (-106.18408015544237, 109.65274178731492), (84.6193958027192, 70.41706373496235), (199.1280385329496, -82.15454738911203), (-171.96344519747538, -115.47102106068465), (143.08722784271544, -108.6176301158591), (-56.59402023237402, -113.3620462320107), (101.72755556473183, 148.24356605205023), (-35.465574116092725, 134.20515775582308), (114.78325385307089, -21.830117681512803), (37.312472763857514, 110.19853199450407)]",1,tangential,79.88,444.43,9.88,13.32,0.0855,3,,,,,0,0,0,0,,,,,0,27,27,130,,,,,,,,,,,,,,,space,0.7503780000843108,,,,,45,,,,,,,,,,,,,,,,,,,,,,,,,,,427.46779039967805,None,,,,,,,,,7,20,Female,2021_Dec_14_1359,uniform_mix,2021.2.3,59.77704354153201,
c4_white_ref.xlsx,c4_white_t.xlsx,c4_white.xlsx,stims/white26.png,,26,2372,0.4,34,"[(-130.0, -20.0), (160.0, 90.0), (160.0, -110.0), (90.0, 100.0), (0.0, 120.0), (80.0, -90.0), (-80.0, 110.0), (-100.0, 50.0), (120.0, 20.0), (-100.0, -90.0), (-190.0, 10.0), (-40.0, -120.0), (100.0, -40.0), (-200.0, 110.0), (30.0, -100.0), (180.0, -20.0), (-180.0, -90.0), (159.60730330065684, -20.808016300994325), (-75.59171007163002, 38.81248410430619), (-39.86130634433796, -101.58183390452137), (-60.44199098073465, 95.9769765390931), (35.20229912384954, -114.53815505647702), (-225.1098269056142, 126.12008599247072), (142.27058966060935, 25.652827743458957), (111.40365683078379, -45.2969422320684), (90.15374481690178, -97.8597718992489), (1.2243076556614199, 98.06200703275852), (3.5198165363918203, 136.13128710727625), (-145.90168808380497, 12.545823695733645), (-211.0287085880716, 10.599097389388625), (-78.13214111068959, -76.79336776680874), (-111.51353474919384, -102.04896824649651), (-156.82071544627547, -68.1611768111782), (-224.7372750038797, -107.05574387828239)]","[(-130.0, -20.0), (160.0, 90.0), (160.0, -110.0), (90.0, 100.0), (0.0, 120.0), (80.0, -90.0), (-80.0, 110.0), (-100.0, 50.0), (120.0, 20.0), (-100.0, -90.0), (-190.0, 10.0), (-40.0, -120.0), (100.0, -40.0), (-200.0, 110.0), (30.0, -100.0), (180.0, -20.0), (-180.0, -90.0)]","[(159.60730330065684, -20.808016300994325), (-75.59171007163002, 38.81248410430619), (-39.86130634433796, -101.58183390452137), (-60.44199098073465, 95.9769765390931), (35.20229912384954, -114.53815505647702), (-225.1098269056142, 126.12008599247072), (142.27058966060935, 25.652827743458957), (111.40365683078379, -45.2969422320684), (90.15374481690178, -97.8597718992489), (1.2243076556614199, 98.06200703275852), (3.5198165363918203, 136.13128710727625), (-145.90168808380497, 12.545823695733645), (-211.0287085880716, 10.599097389388625), (-78.13214111068959, -76.79336776680874), (-111.51353474919384, -102.04896824649651), (-156.82071544627547, -68.1611768111782), (-224.7372750038797, -107.05574387828239)]",0.5,radial,79.49,401.07,9.71,12.92,0.0848,2,,,,,0,0,0,0,,,,,0,28,28,25,,,,,,,,,,,,,,,space,0.32167830038815737,,,,,50,,,,,,,,,,,,,,,,,,,,,,,,,,,431.74642959982157,None,,,,,,,,,7,20,Female,2021_Dec_14_1359,uniform_mix,2021.2.3,59.77704354153201,
c4_white_ref.xlsx,c4_white_t.xlsx,c4_white.xlsx,stims/white107.png,,107,1244,0.4,38,"[(-130.0, -30.0), (150.0, 130.0), (0.0, 140.0), (120.0, -110.0), (-70.0, -100.0), (-190.0, 140.0), (-10.0, -110.0), (40.0, -120.0), (100.0, 60.0), (200.0, -90.0), (40.0, 100.0), (160.0, 60.0), (-180.0, -80.0), (110.0, -30.0), (-200.0, 40.0), (-100.0, 70.0), (-100.0, 10.0), (80.0, 140.0), (-70.0, 120.0), (-26.32867635278714, -116.08258059179157), (51.97333754835731, 97.42271595041605), (-207.71103199515235, 69.44191348309803), (-85.15544201577598, -97.18976847087265), (108.21327088853732, -49.71071196113378), (-93.77857969481785, -0.4983999979665157), (83.98114268574884, 71.32718916771437), (219.5127283827259, -71.34214649692618), (-113.86185874911406, 51.86358731539721), (70.71622679619168, 155.5453169147203), (-183.59517675907486, -108.28642490141567), (-57.06591684651295, 136.6611189380971), (-88.62259195921398, 100.88483530333696), (-163.8792201415186, 168.0946368111814), (-220.01278473639806, 94.11880645204553), (16.787431195047432, -121.17966594261594), (65.35397630032051, -110.87697497790353), (179.2596012595394, 46.931371411406445), (139.36968384294678, 80.4504111141998)]","[(-130.0, -30.0), (150.0, 130.0), (0.0, 140.0), (120.0, -110.0), (-70.0, -100.0), (-190.0, 140.0), (-10.0, -110.0), (40.0, -120.0), (100.0, 60.0), (200.0, -90.0), (40.0, 100.0), (160.0, 60.0), (-180.0, -80.0), (110.0, -30.0), (-200.0, 40.0), (-100.0, 70.0), (-100.0, 10.0), (80.0, 140.0), (-70.0, 120.0)]","[(-26.32867635278714, -116.08258059179157), (51.97333754835731, 97.42271595041605), (-207.71103199515235, 69.44191348309803), (-85.15544201577598, -97.18976847087265), (108.21327088853732, -49.71071196113378), (-93.77857969481785, -0.4983999979665157), (83.98114268574884, 71.32718916771437), (219.5127283827259, -71.34214649692618), (-113.86185874911406, 51.86358731539721), (70.71622679619168, 155.5453169147203), (-183.59517675907486, -108.28642490141567), (-57.06591684651295, 136.6611189380971), (-88.62259195921398, 100.88483530333696), (-163.8792201415186, 168.0946368111814), (-220.01278473639806, 94.11880645204553), (16.787431195047432, -121.17966594261594), (65.35397630032051, -110.87697497790353), (179.2596012595394, 46.931371411406445), (139.36968384294678, 80.4504111141998)]",0.5,tangential,81.43,444.31,10.12,13.56,0.0855,3,,,,,0,0,0,0,,,,,0,29,29,106,,,,,,,,,,,,,,,space,0.29525020020082593,,,,,55,,,,,,,,,,,,,,,,,,,,,,,,,,,434.70994509989396,None,,,,,,,,,7,20,Female,2021_Dec_14_1359,uniform_mix,2021.2.3,59.77704354153201,
c4_white_ref.xlsx,c4_white_t.xlsx,c4_white.xlsx,stims/white115.png,,115,4331,0.4,42,"[(-100.0, 70.0), (0.0, 130.0), (170.0, -140.0), (-150.0, -120.0), (-40.0, 100.0), (170.0, 40.0), (-200.0, 40.0), (-60.0, -80.0), (10.0, -100.0), (90.0, -60.0), (80.0, 100.0), (-80.0, 140.0), (190.0, 120.0), (-190.0, 130.0), (-100.0, -60.0), (120.0, -10.0), (60.0, -120.0), (200.0, -30.0), (90.0, 50.0), (-140.0, 0.0), (-30.0, -120.0), (91.1821348590767, 91.94227059213115), (-143.69005037833213, 32.90243833740426), (85.25125505357848, -79.65082451565709), (-111.37530876243949, -44.94077885383538), (-174.99234225159518, 169.89768758785516), (89.56059992390738, 62.778295909164626), (-95.0788657261221, 127.80792661664478), (87.70735170992594, -105.5079174233623), (-204.11791766759552, 7.994698906308912), (-3.0177670901673963, -128.12818917954337), (160.9757627345022, 69.32110798041012), (-76.30012975029507, -71.61128693731091), (-42.77405063354946, -87.7166768520392), (119.73741085735149, -22.769502474558777), (129.814588129221, 9.62855142066904), (182.82528317065623, -56.034114641261425), (219.37070720715596, -10.691189214944188), (209.17593798966806, 85.9023061403496), (175.9300242532594, 164.09228327627116), (-8.843752036465602, -98.05187431310173), (25.004462316827187, -94.19962159963136)]","[(-100.0, 70.0), (0.0, 130.0), (170.0, -140.0), (-150.0, -120.0), (-40.0, 100.0), (170.0, 40.0), (-200.0, 40.0), (-60.0, -80.0), (10.0, -100.0), (90.0, -60.0), (80.0, 100.0), (-80.0, 140.0), (190.0, 120.0), (-190.0, 130.0), (-100.0, -60.0), (120.0, -10.0), (60.0, -120.0), (200.0, -30.0), (90.0, 50.0), (-140.0, 0.0), (-30.0, -120.0)]","[(91.1821348590767, 91.94227059213115), (-143.69005037833213, 32.90243833740426), (85.25125505357848, -79.65082451565709), (-111.37530876243949, -44.94077885383538), (-174.99234225159518, 169.89768758785516), (89.56059992390738, 62.778295909164626), (-95.0788657261221, 127.80792661664478), (87.70735170992594, -105.5079174233623), (-204.11791766759552, 7.994698906308912), (-3.0177670901673963, -128.12818917954337), (160.9757627345022, 69.32110798041012), (-76.30012975029507, -71.61128693731091), (-42.77405063354946, -87.7166768520392), (119.73741085735149, -22.769502474558777), (129.814588129221, 9.62855142066904), (182.82528317065623, -56.034114641261425), (219.37070720715596, -10.691189214944188), (209.17593798966806, 85.9023061403496), (175.9300242532594, 164.09228327627116), (-8.843752036465602, -98.05187431310173), (25.004462316827187, -94.19962159963136)]",0.5,tangential,84.85,491.34,9.88,13.23,0.0855,3,,,,,0,0,0,0,,,,,0,30,30,114,,,,,,,,,,,,,,,space,0.17777279997244477,,,,,60,,,,,,,,,,,,,,,,,,,,,,,,,,,436.87766660004854,None,,,,,,,,,7,20,Female,2021_Dec_14_1359,uniform_mix,2021.2.3,59.77704354153201,
c4_white_ref.xlsx,c4_white_t.xlsx,c4_white.xlsx,stims/white20.png,,20,2779,0.4,42,"[(90.0, -50.0), (180.0, 130.0), (-150.0, -50.0), (160.0, -60.0), (100.0, 0.0), (-50.0, 120.0), (0.0, 100.0), (-100.0, 0.0), (-140.0, 70.0), (-150.0, -130.0), (-180.0, 20.0), (-120.0, 140.0), (-70.0, -130.0), (-80.0, 60.0), (80.0, 90.0), (0.0, -100.0), (160.0, -140.0), (180.0, 50.0), (-80.0, -60.0), (80.0, -120.0), (40.0, 140.0), (-149.54096322927313, 164.83303911297185), (4.136468152796123, -80.25006471539321), (-5.787532489686388, -110.72234182600221), (-68.77480355579225, -112.13256665015433), (-72.96790374611963, -152.42762811466835), (-157.83376137843953, 12.158377047940732), (-199.43710258498567, 9.95670419483957), (34.32999494648499, 121.69743578049619), (49.78698284706863, 155.31876016233343), (67.98091742124731, 72.66378680573803), (96.64941540888216, 110.20140782818272), (69.9340917290998, -107.82458190245379), (86.51587804574511, -136.37153991143458), (163.00545531904697, 28.479195481205196), (209.74144696079077, 53.42317670016443), (-68.00061903400164, -47.80574123724392), (-89.38560312242933, -69.8014359893604), (141.20281997913185, -122.18427516161623), (192.23532158837924, -166.86868837825932), (-66.8307585697844, 44.12310593427892), (-95.22814036780531, 76.15529766819532)]","[(90.0, -50.0), (180.0, 130.0), (-150.0, -50.0), (160.0, -60.0), (100.0, 0.0), (-50.0, 120.0), (0.0, 100.0), (-100.0, 0.0), (-140.0, 70.0), (-150.0, -130.0), (-180.0, 20.0), (-120.0, 140.0), (-70.0, -130.0), (-80.0, 60.0), (80.0, 90.0), (0.0, -100.0), (160.0, -140.0), (180.0, 50.0), (-80.0, -60.0), (80.0, -120.0), (40.0, 140.0)]","[(-149.54096322927313, 164.83303911297185), (4.136468152796123, -80.25006471539321), (-5.787532489686388, -110.72234182600221), (-68.77480355579225, -112.13256665015433), (-72.96790374611963, -152.42762811466835), (-157.83376137843953, 12.158377047940732), (-199.43710258498567, 9.95670419483957), (34.32999494648499, 121.69743578049619), (49.78698284706863, 155.31876016233343), (67.98091742124731, 72.66378680573803), (96.64941540888216, 110.20140782818272), (69.9340917290998, -107.82458190245379), (86.51587804574511, -136.37153991143458), (163.00545531904697, 28.479195481205196), (209.74144696079077, 53.42317670016443), (-68.00061903400164, -47.80574123724392), (-89.38560312242933, -69.8014359893604), (141.20281997913185, -122.18427516161623), (192.23532158837924, -166.86868837825932), (-66.8307585697844, 44.12310593427892), (-95.22814036780531, 76.15529766819532)]",0,radial,84.58,491.48,9.63,13.07,0.0855,4,,,,,0,0,0,0,,,,,0,31,31,19,,,,,,,,,,,,,,,space,0.01432269997894764,,,,,55,,,,,,,,,,,,,,,,,,,,,,,,,,,439.10520859993994,None,,,,,,,,,7,20,Female,2021_Dec_14_1359,uniform_mix,2021.2.3,59.77704354153201,
c4_white_ref.xlsx,c4_white_t.xlsx,c4_white.xlsx,stims/white46.png,,46,4395,0.4,44,"[(-70.0, -80.0), (0.0, -100.0), (170.0, 130.0), (200.0, 10.0), (-120.0, 80.0), (170.0, -80.0), (130.0, 30.0), (-190.0, 90.0), (80.0, 140.0), (-200.0, -50.0), (90.0, -140.0), (80.0, 80.0), (-110.0, -40.0), (-100.0, -140.0), (100.0, -10.0), (30.0, 110.0), (-200.0, -140.0), (-100.0, 140.0), (-140.0, 10.0), (-30.0, -140.0), (-40.0, 120.0), (70.0, -80.0), (102.81106962693465, 32.22348328381298), (-151.56648052234675, -123.71494490651504), (85.8307758451052, -7.045369304762632), (-168.72992383607016, -58.42651176340803), (-34.049830877742465, 100.33521255750864), (-165.75693064908674, 71.86498896125845), (-127.25193137984498, -46.44423720649286), (105.23235472536227, -162.22269188762542), (-119.49902350471251, -170.8394924435505), (103.08982576026692, 167.93715358788427), (190.56804250143537, -83.14308140718981), (-36.66178107475818, -172.00212498014582), (67.35011033987715, 70.76006786094473), (94.23862281252791, 87.80760458953554), (-95.42005098373593, 114.86617386617142), (-113.12437450441315, 171.38751390635917), (23.450899298936235, 92.97978142962714), (25.86316870282097, 127.76304261009417), (-105.97748431862098, 6.93813911198443), (-171.8368184940423, 13.421906713514021), (65.04492618071575, -70.06844945166387), (79.58508098938509, -86.38235644565424)]","[(-70.0, -80.0), (0.0, -100.0), (170.0, 130.0), (200.0, 10.0), (-120.0, 80.0), (170.0, -80.0), (130.0, 30.0), (-190.0, 90.0), (80.0, 140.0), (-200.0, -50.0), (90.0, -140.0), (80.0, 80.0), (-110.0, -40.0), (-100.0, -140.0), (100.0, -10.0), (30.0, 110.0), (-200.0, -140.0), (-100.0, 140.0), (-140.0, 10.0), (-30.0, -140.0), (-40.0, 120.0), (70.0, -80.0)]","[(102.81106962693465, 32.22348328381298), (-151.56648052234675, -123.71494490651504), (85.8307758451052, -7.045369304762632), (-168.72992383607016, -58.42651176340803), (-34.049830877742465, 100.33521255750864), (-165.75693064908674, 71.86498896125845), (-127.25193137984498, -46.44423720649286), (105.23235472536227, -162.22269188762542), (-119.49902350471251, -170.8394924435505), (103.08982576026692, 167.93715358788427), (190.56804250143537, -83.14308140718981), (-36.66178107475818, -172.00212498014582), (67.35011033987715, 70.76006786094473), (94.23862281252791, 87.80760458953554), (-95.42005098373593, 114.86617386617142), (-113.12437450441315, 171.38751390635917), (23.450899298936235, 92.97978142962714), (25.86316870282097, 127.76304261009417), (-105.97748431862098, 6.93813911198443), (-171.8368184940423, 13.421906713514021), (65.04492618071575, -70.06844945166387), (79.58508098938509, -86.38235644565424)]",0.5,radial,83.8,514.98,9.89,13.34,0.0854,2,,,,,0,0,0,0,,,,,0,32,32,45,,,,,,,,,,,,,,,space,0.20000920025631785,,,,,45,,,,,,,,,,,,,,,,,,,,,,,,,,,441.2936200997792,None,,,,,,,,,7,20,Female,2021_Dec_14_1359,uniform_mix,2021.2.3,59.77704354153201,
c4_white_ref.xlsx,c4_white_t.xlsx,c4_white.xlsx,stims/white24.png,,24,3563,0.4,44,"[(-130.0, -40.0), (80.0, 60.0), (-90.0, -120.0), (-200.0, 0.0), (-150.0, 120.0), (170.0, -40.0), (100.0, 110.0), (-50.0, 140.0), (120.0, 0.0), (40.0, -100.0), (-30.0, -120.0), (-170.0, -100.0), (-110.0, 10.0), (200.0, 130.0), (-120.0, 60.0), (-70.0, 90.0), (-80.0, -60.0), (10.0, 130.0), (200.0, 40.0), (100.0, -60.0), (100.0, -120.0), (180.0, -130.0), (-100.4995515599257, 48.403471118576746), (-135.7374520976016, 70.21986413166685), (168.19141807514197, 101.05102722707066), (251.2239535984329, 156.82027301979147), (-86.21789410247315, 10.635723645167225), (-136.1995712567405, 10.514839245263117), (18.533101772943173, 113.6137054606252), (11.3152632856675, 159.61597483962385), (-65.45562280561101, 76.33721952966133), (-78.18356363036405, 111.33755353291599), (-131.52036488053693, -90.00253226125174), (-193.25022936151808, -122.98869279105428), (79.29193597930717, -55.1238763203948), (110.27272623750116, -74.22009216018259), (92.89449300511491, -101.39844587764458), (121.57971512346762, -133.4849065080164), (144.40598971308742, -104.57102188436929), (207.15447022281728, -157.96226402981097), (165.29477138685638, 36.0241359105197), (223.3672789167246, 27.799792198021038), (-61.576209350457276, -47.77816202258518), (-92.32281760149976, -74.31199255775077)]","[(-130.0, -40.0), (80.0, 60.0), (-90.0, -120.0), (-200.0, 0.0), (-150.0, 120.0), (170.0, -40.0), (100.0, 110.0), (-50.0, 140.0), (120.0, 0.0), (40.0, -100.0), (-30.0, -120.0), (-170.0, -100.0), (-110.0, 10.0), (200.0, 130.0), (-120.0, 60.0), (-70.0, 90.0), (-80.0, -60.0), (10.0, 130.0), (200.0, 40.0), (100.0, -60.0), (100.0, -120.0), (180.0, -130.0)]","[(-100.4995515599257, 48.403471118576746), (-135.7374520976016, 70.21986413166685), (168.19141807514197, 101.05102722707066), (251.2239535984329, 156.82027301979147), (-86.21789410247315, 10.635723645167225), (-136.1995712567405, 10.514839245263117), (18.533101772943173, 113.6137054606252), (11.3152632856675, 159.61597483962385), (-65.45562280561101, 76.33721952966133), (-78.18356363036405, 111.33755353291599), (-131.52036488053693, -90.00253226125174), (-193.25022936151808, -122.98869279105428), (79.29193597930717, -55.1238763203948), (110.27272623750116, -74.22009216018259), (92.89449300511491, -101.39844587764458), (121.57971512346762, -133.4849065080164), (144.40598971308742, -104.57102188436929), (207.15447022281728, -157.96226402981097), (165.29477138685638, 36.0241359105197), (223.3672789167246, 27.799792198021038), (-61.576209350457276, -47.77816202258518), (-92.32281760149976, -74.31199255775077)]",0,radial,90.25,514.82,10.09,13.59,0.0855,4,,,,,0,0,0,0,,,,,0,33,33,23,,,,,,,,,,,,,,,space,0.1823650998994708,,,,,55,,,,,,,,,,,,,,,,,,,,,,,,,,,443.2046314999461,None,,,,,,,,,7,20,Female,2021_Dec_14_1359,uniform_mix,2021.2.3,59.77704354153201,
c4_white_ref.xlsx,c4_white_t.xlsx,c4_white.xlsx,stims/white40.png,,40,3974,0.4,40,"[(-200.0, -10.0), (-50.0, 110.0), (90.0, 60.0), (-10.0, -100.0), (-110.0, -30.0), (120.0, 20.0), (90.0, -130.0), (-160.0, -90.0), (-150.0, 120.0), (170.0, -120.0), (20.0, 140.0), (-140.0, 30.0), (200.0, 90.0), (160.0, -30.0), (-50.0, -140.0), (30.0, -130.0), (-90.0, 70.0), (-80.0, -90.0), (90.0, 120.0), (80.0, -70.0), (64.91653688953967, -66.17396528156166), (138.97043637605267, -118.55518339949471), (22.370276276869127, -111.95537758048572), (-127.78862388163452, -86.52554664521831), (81.94179829405515, -114.30286569604183), (108.91598452547777, 132.20920563123633), (-178.64502823190327, 145.04681955918153), (-95.8893553632141, -110.40115513153629), (183.40552326820352, -24.655247250001814), (144.79854638231694, 19.887284785663795), (159.78452278633225, 68.48797236667558), (239.8129139291889, 110.91079340635355), (-122.594983584507, 36.07856353179956), (-161.3274215690953, 25.604543873862852), (17.319028098568424, 122.01984838237144), (14.68082970946682, 159.25438082024132), (-32.76058806985406, -128.66968091690796), (-62.119383671694706, -165.7196912664258), (-75.58733496554231, 59.40887599349643), (-102.06288437145153, 80.57734625228633)]","[(-200.0, -10.0), (-50.0, 110.0), (90.0, 60.0), (-10.0, -100.0), (-110.0, -30.0), (120.0, 20.0), (90.0, -130.0), (-160.0, -90.0), (-150.0, 120.0), (170.0, -120.0), (20.0, 140.0), (-140.0, 30.0), (200.0, 90.0), (160.0, -30.0), (-50.0, -140.0), (30.0, -130.0), (-90.0, 70.0), (-80.0, -90.0), (90.0, 120.0), (80.0, -70.0)]","[(64.91653688953967, -66.17396528156166), (138.97043637605267, -118.55518339949471), (22.370276276869127, -111.95537758048572), (-127.78862388163452, -86.52554664521831), (81.94179829405515, -114.30286569604183), (108.91598452547777, 132.20920563123633), (-178.64502823190327, 145.04681955918153), (-95.8893553632141, -110.40115513153629), (183.40552326820352, -24.655247250001814), (144.79854638231694, 19.887284785663795), (159.78452278633225, 68.48797236667558), (239.8129139291889, 110.91079340635355), (-122.594983584507, 36.07856353179956), (-161.3274215690953, 25.604543873862852), (17.319028098568424, 122.01984838237144), (14.68082970946682, 159.25438082024132), (-32.76058806985406, -128.66968091690796), (-62.119383671694706, -165.7196912664258), (-75.58733496554231, 59.40887599349643), (-102.06288437145153, 80.57734625228633)]",0.5,radial,83.22,467.97,9.91,13.3,0.0855,4,,,,,0,0,0,0,,,,,0,34,34,39,,,,,,,,,,,,,,,space,0.1660822001285851,,,,,50,,,,,,,,,,,,,,,,,,,,,,,,,,,445.9475880996324,None,,,,,,,,,7,20,Female,2021_Dec_14_1359,uniform_mix,2021.2.3,59.77704354153201,
c4_white_ref.xlsx,c4_white_t.xlsx,c4_white.xlsx,stims/white33.png,,33,4683,0.4,38,"[(-90.0, 50.0), (-130.0, -50.0), (170.0, -140.0), (-120.0, -120.0), (-20.0, -130.0), (100.0, 20.0), (150.0, 0.0), (120.0, -50.0), (110.0, 70.0), (-130.0, 20.0), (-50.0, -90.0), (50.0, 100.0), (-200.0, -30.0), (10.0, 130.0), (-60.0, 110.0), (180.0, 80.0), (60.0, -100.0), (-160.0, 90.0), (100.0, 140.0), (40.270503494656936, 80.49678436683119), (103.45271346514292, 54.10332814946101), (-56.11943677404912, 88.57283170314858), (86.7994701745923, 25.764650362350284), (-116.47971841886059, 19.034235111926726), (-58.60702829765067, -110.42691774593195), (131.4277210867804, -56.435957662426695), (-184.62100641455658, 88.50733697436627), (12.090285793026005, 153.60856365356958), (211.37818414520166, 100.99309392017113), (119.13861421179763, 147.44985783509492), (48.765803501747676, -92.63198652012034), (59.77416693228297, -114.79408551225404), (-172.03095700171536, -25.564508405672765), (-234.41456763106774, -40.7795373752287), (125.21801852031791, -0.74542775005186), (169.07600703146525, -1.2067420415541115), (-13.88412511127931, -105.62506332593553), (-30.632959073973783, -150.83671583520837)]","[(-90.0, 50.0), (-130.0, -50.0), (170.0, -140.0), (-120.0, -120.0), (-20.0, -130.0), (100.0, 20.0), (150.0, 0.0), (120.0, -50.0), (110.0, 70.0), (-130.0, 20.0), (-50.0, -90.0), (50.0, 100.0), (-200.0, -30.0), (10.0, 130.0), (-60.0, 110.0), (180.0, 80.0), (60.0, -100.0), (-160.0, 90.0), (100.0, 140.0)]","[(40.270503494656936, 80.49678436683119), (103.45271346514292, 54.10332814946101), (-56.11943677404912, 88.57283170314858), (86.7994701745923, 25.764650362350284), (-116.47971841886059, 19.034235111926726), (-58.60702829765067, -110.42691774593195), (131.4277210867804, -56.435957662426695), (-184.62100641455658, 88.50733697436627), (12.090285793026005, 153.60856365356958), (211.37818414520166, 100.99309392017113), (119.13861421179763, 147.44985783509492), (48.765803501747676, -92.63198652012034), (59.77416693228297, -114.79408551225404), (-172.03095700171536, -25.564508405672765), (-234.41456763106774, -40.7795373752287), (125.21801852031791, -0.74542775005186), (169.07600703146525, -1.2067420415541115), (-13.88412511127931, -105.62506332593553), (-30.632959073973783, -150.83671583520837)]",0.5,radial,80.85,444.82,9.51,12.77,0.0854,1,,,,,0,0,0,0,,,,,0,35,35,32,,,,,,,,,,,,,,,space,0.25067400000989437,,,,,45,,,,,,,,,,,,,,,,,,,,,,,,,,,448.27000729972497,None,,,,,,,,,7,20,Female,2021_Dec_14_1359,uniform_mix,2021.2.3,59.77704354153201,
c4_white_ref.xlsx,c4_white_t.xlsx,c4_white.xlsx,stims/white138.png,,138,1188,0.4,42,"[(-100.0, -70.0), (-180.0, 140.0), (-20.0, -120.0), (180.0, 40.0), (-100.0, 60.0), (-200.0, -100.0), (-200.0, 40.0), (90.0, 50.0), (-80.0, 130.0), (100.0, -140.0), (170.0, -90.0), (200.0, 130.0), (30.0, -140.0), (120.0, 110.0), (-100.0, -20.0), (-100.0, -130.0), (110.0, 0.0), (0.0, 110.0), (60.0, -80.0), (100.0, -60.0), (50.0, 90.0), (-106.63658828951495, -56.590001041303196), (-155.37740981530868, 158.7840319488275), (-36.48388720795833, -121.5439154114959), (178.18523933264566, 12.391209176493959), (-85.41926733540376, 65.75389731848904), (-223.77718372046118, -85.80202797842477), (-184.44717615699201, 71.14192055219021), (99.23096037378163, 39.92269513350678), (-53.87804688779349, 147.68058833515744), (78.26459715914035, -138.9877740210741), (191.83641556648803, -61.29276669566957), (182.86734089615516, 161.0514046141428), (52.781481629813925, -142.05961960104275), (91.58382088954134, 136.11916671436984), (-97.3853343747271, -42.32379636308727), (-67.39786154575792, -154.5817579663094), (118.32798004050886, 15.434135445611645), (-18.01103623675202, 117.64323876990373), (74.43175370123745, -79.26887850263424), (112.47386572735095, -42.59685901354831), (42.62034907845265, 99.02982303875189)]","[(-100.0, -70.0), (-180.0, 140.0), (-20.0, -120.0), (180.0, 40.0), (-100.0, 60.0), (-200.0, -100.0), (-200.0, 40.0), (90.0, 50.0), (-80.0, 130.0), (100.0, -140.0), (170.0, -90.0), (200.0, 130.0), (30.0, -140.0), (120.0, 110.0), (-100.0, -20.0), (-100.0, -130.0), (110.0, 0.0), (0.0, 110.0), (60.0, -80.0), (100.0, -60.0), (50.0, 90.0)]","[(-106.63658828951495, -56.590001041303196), (-155.37740981530868, 158.7840319488275), (-36.48388720795833, -121.5439154114959), (178.18523933264566, 12.391209176493959), (-85.41926733540376, 65.75389731848904), (-223.77718372046118, -85.80202797842477), (-184.44717615699201, 71.14192055219021), (99.23096037378163, 39.92269513350678), (-53.87804688779349, 147.68058833515744), (78.26459715914035, -138.9877740210741), (191.83641556648803, -61.29276669566957), (182.86734089615516, 161.0514046141428), (52.781481629813925, -142.05961960104275), (91.58382088954134, 136.11916671436984), (-97.3853343747271, -42.32379636308727), (-67.39786154575792, -154.5817579663094), (118.32798004050886, 15.434135445611645), (-18.01103623675202, 117.64323876990373), (74.43175370123745, -79.26887850263424), (112.47386572735095, -42.59685901354831), (42.62034907845265, 99.02982303875189)]",1,tangential,84.25,491.2,9.97,13.48,0.0855,2,,,,,0,0,0,0,,,,,0,36,36,137,,,,,,,,,,,,,,,space,0.17117600003257394,,,,,55,,,,,,,,,,,,,,,,,,,,,,,,,,,450.4704272998497,None,,,,,,,,,7,20,Female,2021_Dec_14_1359,uniform_mix,2021.2.3,59.77704354153201,
